[RAG] Loading FAISS index from C:\Users\ZhiyangCao\Desktop\work\SDK_test\sdtm-multi-domain-agent\rag_store\sdtmig.faiss...
[RAG] Index loaded. Size: 1739
[RAG] Metadata loaded. Count: 1739
[RAG] Loading embedding model: BAAI/bge-small-en-v1.5...
[RAG] Model ready.
{
  "success": true,
  "query": "AE domain required variables and controlled terminology for adverse events",
  "domain": "AE",
  "chunks": [
    {
      "page": 135,
      "score": 0.8414789438247681,
      "text": " that are assessed as efficacy endpoints). The events included in the AE dataset should be consistent with the protocol requirements. Adverse events may be captured either as free text or via a pre-specified list of terms. 2. Adverse Event Description and Coding a. AETERM captures the verbatim term collected for the event. It is the topic variable for the AE dataset. AETERM is a required variable and must have a value. b. AEMODIFY is a permissible variable and should be included if the sponsor's procedure permits modification of a verbatim term for coding. The modified term is listed in AEMODIFY. The variable should be populated as per the sponsor's procedures. c. AEDECOD is the preferred term derived by the sponsor from the coding dictionary. It is a required variable and must have a value. It is expected that the reported term (AETERM) will be coded using a standard dictionary such as MedDRA. The sponsor is expected to provide the dictionary name and version used to map the terms uti"
    },
    {
      "page": 137,
      "score": 0.8076988458633423,
      "text": "erse event unambiguously. Similarly, if TAETORD is included in the Adverse Events domain, it should be the value for the start of the adverse event, and the computational method in the Define-XML document should describe any assumptions. 8. Any additional Identifier variables may be added to the AE domain. 9. Additional Events Qualifiers The following Qualifiers would not be used in AE: --OCCUR, --STAT, and--REASND. They are the only Qualifiers from the SDTM Events Class not in the AE domain. They are not permitted because the AE domain contains only records for adverse events that actually occurred. See Assumption 4b above for information on how to deal with negative responses or missing responses to probing questions for pre -specified adverse events. 10. Variable order in the domain should follow the rules as described in Section 4.1.4, Order of the Var iables and the order described in Section 1.1, Purpose . 11. The addition of AELLT, AELLTCD, AEPTCD, AEHLT, AEHLTCD, AEHLGT, AEHLGT"
    },
    {
      "page": 31,
      "score": 0.8043724894523621,
      "text": "f NEUROTOXICITY. b. Cases where multiple datasets are necessary to capture data about the same topic. As an example, perhaps the existence and start and stop date of \"Paresthesia of the left Arm\" is reported as an Adverse Event (AE domain), but the severity of the event is captured at multiple visits and recorded as Findings About (FA dataset). In both cases the --CAT variable could have a value of NEUROTOXICITY. c. Cases where multiple domains are necessary to capture data that was collected together and have an implicit relationship, perhaps identified in the Related Records (RELREC) special purpose dataset. Stress Test data collection, for example, may capture the following: 1. Information about the occurrence, start, stop, and duration of the test (in the PR domain) 2. Vital Signs recorded during the stress test (VS domain)"
    },
    {
      "page": 142,
      "score": 0.7923394441604614,
      "text": "inical events domain is based on the Events general observation class and thus can use any variables in the Events class, including those found in the Adverse Events (AE) domain specification table. CE – Examples Example 1 In this example: • Data were collected about pre-specified events that, in the context of this study, were not reportable as Adverse Events."
    },
    {
      "page": 137,
      "score": 0.7869167327880859,
      "text": "CDISC Study Data Tabulation Model Implementation Guide: Human Clinical Trials (Version 3.3 Final) © 2018 Clinical Data Interchange Standards Consortium, Inc. All rights reserved Page 137 2018-11-20 name code AESOSP as described in Section 8.4, Relating Non-Standard Variables Values to a Parent Domain and in Appendix C2, Supplemental Qualifiers Name Codes. d. In studies using toxicity grade according to a standard toxicity scale such as Common Terminology Criteria for Adverse Events v3.0 (CTCAE), published by the NCI (National Cancer Institute) at https://ctep.cancer.gov/protocoldevelopment/electronic_applications/docs/ctcaev3.pdf, AETOXGR should be used instead of AESEV. In most cases, either AESEV or AETOXGR is populated but not both. There may be cases when a sponsor may need to populate both variables. The sponsor is expected to provide the dictionary name and version used to map the terms utilizing the external codelist element in the Define - XML document. e. AE Structure The stru"
    }
  ],
  "formatted": "[page 135 | score 0.841]  that are assessed as efficacy endpoints). The events included in the AE dataset should be consistent with the protocol requirements. Adverse events may be captured either as free text or via a pre-specified list of terms. 2. Adverse Event Description and Coding a. AETERM captures the verbatim term collected for the event. It is the topic variable for the AE dataset. AETERM is a required variable and must have a value. b. AEMODIFY is a permissible variable and should be included if the sponsor's procedure permits modification of a verbatim term for coding. The modified term is listed in AEMODIFY. The variable should be populated as per the sponsor's procedures. c. AEDECOD is the preferred term derived by the sponsor from the coding dictionary. It is a required variable and must have a value. It is expected that the reported term (AETERM) will be coded using a standard dictionary such as MedDRA. The sponsor is expected to provide the dictionary name and version used to map the terms uti\n[page 137 | score 0.808] erse event unambiguously. Similarly, if TAETORD is included in the Adverse Events domain, it should be the value for the start of the adverse event, and the computational method in the Define-XML document should describe any assumptions. 8. Any additional Identifier variables may be added to the AE domain. 9. Additional Events Qualifiers The following Qualifiers would not be used in AE: --OCCUR, --STAT, and--REASND. They are the only Qualifiers from the SDTM Events Class not in the AE domain. They are not permitted because the AE domain contains only records for adverse events that actually occurred. See Assumption 4b above for information on how to deal with negative responses or missing responses to probing questions for pre -specified adverse events. 10. Variable order in the domain should follow the rules as described in Section 4.1.4, Order of the Var iables and the order described in Section 1.1, Purpose . 11. The addition of AELLT, AELLTCD, AEPTCD, AEHLT, AEHLTCD, AEHLGT, AEHLGT\n[page 31 | score 0.804] f NEUROTOXICITY. b. Cases where multiple datasets are necessary to capture data about the same topic. As an example, perhaps the existence and start and stop date of \"Paresthesia of the left Arm\" is reported as an Adverse Event (AE domain), but the severity of the event is captured at multiple visits and recorded as Findings About (FA dataset). In both cases the --CAT variable could have a value of NEUROTOXICITY. c. Cases where multiple domains are necessary to capture data that was collected together and have an implicit relationship, perhaps identified in the Related Records (RELREC) special purpose dataset. Stress Test data collection, for example, may capture the following: 1. Information about the occurrence, start, stop, and duration of the test (in the PR domain) 2. Vital Signs recorded during the stress test (VS domain)\n[page 142 | score 0.792] inical events domain is based on the Events general observation class and thus can use any variables in the Events class, including those found in the Adverse Events (AE) domain specification table. CE – Examples Example 1 In this example: • Data were collected about pre-specified events that, in the context of this study, were not reportable as Adverse Events.\n[page 137 | score 0.787] CDISC Study Data Tabulation Model Implementation Guide: Human Clinical Trials (Version 3.3 Final) © 2018 Clinical Data Interchange Standards Consortium, Inc. All rights reserved Page 137 2018-11-20 name code AESOSP as described in Section 8.4, Relating Non-Standard Variables Values to a Parent Domain and in Appendix C2, Supplemental Qualifiers Name Codes. d. In studies using toxicity grade according to a standard toxicity scale such as Common Terminology Criteria for Adverse Events v3.0 (CTCAE), published by the NCI (National Cancer Institute) at https://ctep.cancer.gov/protocoldevelopment/electronic_applications/docs/ctcaev3.pdf, AETOXGR should be used instead of AESEV. In most cases, either AESEV or AETOXGR is populated but not both. There may be cases when a sponsor may need to populate both variables. The sponsor is expected to provide the dictionary name and version used to map the terms utilizing the external codelist element in the Define - XML document. e. AE Structure The stru"
}
