{
  "step1_read_source_data": {
    "success": true,
    "file": "C:\\Users\\ZhiyangCao\\Desktop\\work\\SDK_test\\sdtm-multi-domain-agent\\data\\uploads\\CH3_ae.xlsx",
    "records": 799,
    "columns": [
      "projectid",
      "project",
      "studyid",
      "environmentName",
      "subjectId",
      "StudySiteId",
      "siteid",
      "SiteNumber",
      "SiteGroup",
      "instanceId",
      "InstanceName",
      "InstanceRepeatNumber",
      "folderid",
      "Folder",
      "FolderName",
      "FolderSeq",
      "TargetDays",
      "DataPageId",
      "DataPageName",
      "PageRepeatNumber",
      "RecordDate",
      "RecordId",
      "RecordPosition",
      "MinCreated",
      "MaxUpdated",
      "SaveTS",
      "StudyEnvSiteNumber",
      "AEYN",
      "AEYN_STD",
      "AETERM",
      "AESTDAT",
      "AETPT",
      "AETPT_STD",
      "AEENDAT",
      "AECTCAE",
      "AECTCAE_STD",
      "AEDAT",
      "AEREL",
      "AEREL_STD",
      "AEACN",
      "AEACN_STD",
      "AEOUT",
      "AEOUT_STD",
      "AESER",
      "AESER_STD",
      "SAEDAT",
      "SAE01",
      "SAE02",
      "SAE03",
      "SAE04",
      "SAE05",
      "SAE06",
      "H_NOW",
      "Site",
      "Subject"
    ],
    "shape": [
      799,
      55
    ]
  },
  "step1_profile": {
    "records": 799,
    "fields": 55,
    "columns": [
      "projectid",
      "project",
      "studyid",
      "environmentName",
      "subjectId",
      "StudySiteId",
      "siteid",
      "SiteNumber",
      "SiteGroup",
      "instanceId",
      "InstanceName",
      "InstanceRepeatNumber",
      "folderid",
      "Folder",
      "FolderName",
      "FolderSeq",
      "TargetDays",
      "DataPageId",
      "DataPageName",
      "PageRepeatNumber",
      "RecordDate",
      "RecordId",
      "RecordPosition",
      "MinCreated",
      "MaxUpdated",
      "SaveTS",
      "StudyEnvSiteNumber",
      "AEYN",
      "AEYN_STD",
      "AETERM",
      "AESTDAT",
      "AETPT",
      "AETPT_STD",
      "AEENDAT",
      "AECTCAE",
      "AECTCAE_STD",
      "AEDAT",
      "AEREL",
      "AEREL_STD",
      "AEACN",
      "AEACN_STD",
      "AEOUT",
      "AEOUT_STD",
      "AESER",
      "AESER_STD",
      "SAEDAT",
      "SAE01",
      "SAE02",
      "SAE03",
      "SAE04",
      "SAE05",
      "SAE06",
      "H_NOW",
      "Site",
      "Subject"
    ],
    "dtypes": {
      "projectid": "int64",
      "project": "str",
      "studyid": "int64",
      "environmentName": "str",
      "subjectId": "int64",
      "StudySiteId": "int64",
      "siteid": "int64",
      "SiteNumber": "str",
      "SiteGroup": "str",
      "instanceId": "int64",
      "InstanceName": "str",
      "InstanceRepeatNumber": "int64",
      "folderid": "int64",
      "Folder": "str",
      "FolderName": "str",
      "FolderSeq": "int64",
      "TargetDays": "float64",
      "DataPageId": "int64",
      "DataPageName": "str",
      "PageRepeatNumber": "int64",
      "RecordDate": "float64",
      "RecordId": "int64",
      "RecordPosition": "int64",
      "MinCreated": "datetime64[us]",
      "MaxUpdated": "datetime64[us]",
      "SaveTS": "datetime64[us]",
      "StudyEnvSiteNumber": "int64",
      "AEYN": "str",
      "AEYN_STD": "int64",
      "AETERM": "str",
      "AESTDAT": "str",
      "AETPT": "str",
      "AETPT_STD": "float64",
      "AEENDAT": "str",
      "AECTCAE": "str",
      "AECTCAE_STD": "float64",
      "AEDAT": "str",
      "AEREL": "str",
      "AEREL_STD": "float64",
      "AEACN": "str",
      "AEACN_STD": "float64",
      "AEOUT": "str",
      "AEOUT_STD": "float64",
      "AESER": "str",
      "AESER_STD": "float64",
      "SAEDAT": "str",
      "SAE01": "int64",
      "SAE02": "int64",
      "SAE03": "int64",
      "SAE04": "int64",
      "SAE05": "int64",
      "SAE06": "int64",
      "H_NOW": "str",
      "Site": "str",
      "Subject": "str"
    },
    "missing_rate": {
      "projectid": 0.0,
      "project": 0.0,
      "studyid": 0.0,
      "environmentName": 0.0,
      "subjectId": 0.0,
      "StudySiteId": 0.0,
      "siteid": 0.0,
      "SiteNumber": 0.0,
      "SiteGroup": 0.0,
      "instanceId": 0.0,
      "InstanceName": 0.0,
      "InstanceRepeatNumber": 0.0,
      "folderid": 0.0,
      "Folder": 0.0,
      "FolderName": 0.0,
      "FolderSeq": 0.0,
      "TargetDays": 1.0,
      "DataPageId": 0.0,
      "DataPageName": 0.0,
      "PageRepeatNumber": 0.0,
      "RecordDate": 1.0,
      "RecordId": 0.0,
      "RecordPosition": 0.0,
      "MinCreated": 0.0,
      "MaxUpdated": 0.0,
      "SaveTS": 0.0,
      "StudyEnvSiteNumber": 0.0,
      "AEYN": 0.0,
      "AEYN_STD": 0.0,
      "AETERM": 0.0526,
      "AESTDAT": 0.0526,
      "AETPT": 0.9975,
      "AETPT_STD": 0.9975,
      "AEENDAT": 0.3029,
      "AECTCAE": 0.0526,
      "AECTCAE_STD": 0.0526,
      "AEDAT": 0.1627,
      "AEREL": 0.0526,
      "AEREL_STD": 0.0526,
      "AEACN": 0.0526,
      "AEACN_STD": 0.0526,
      "AEOUT": 0.0538,
      "AEOUT_STD": 0.0538,
      "AESER": 0.0526,
      "AESER_STD": 0.0526,
      "SAEDAT": 0.9587,
      "SAE01": 0.0,
      "SAE02": 0.0,
      "SAE03": 0.0,
      "SAE04": 0.0,
      "SAE05": 0.0,
      "SAE06": 0.0,
      "H_NOW": 0.0,
      "Site": 0.0,
      "Subject": 0.0
    },
    "sample_rows": [
      {
        "projectid": 633,
        "project": "2020-689-00CH3",
        "studyid": 14,
        "environmentName": "Prod",
        "subjectId": 1751,
        "StudySiteId": 49,
        "siteid": 39,
        "SiteNumber": "2020-689-00CH3-03",
        "SiteGroup": "World",
        "instanceId": 26992,
        "InstanceName": "Common Page",
        "InstanceRepeatNumber": 0,
        "folderid": 4120,
        "Folder": "COM",
        "FolderName": "Common Page",
        "FolderSeq": 42,
        "TargetDays": NaN,
        "DataPageId": 206887,
        "DataPageName": "Adverse Event",
        "PageRepeatNumber": 0,
        "RecordDate": NaN,
        "RecordId": 337033,
        "RecordPosition": 1,
        "MinCreated": "2021-09-30 11:31:00.673000",
        "MaxUpdated": "2022-07-25 03:15:38.160000",
        "SaveTS": "2022-07-25 04:01:14.063000",
        "StudyEnvSiteNumber": 3,
        "AEYN": "Yes",
        "AEYN_STD": 1,
        "AETERM": "Alanine aminotransferase  increased",
        "AESTDAT": "19/AUG/2021",
        "AETPT": NaN,
        "AETPT_STD": NaN,
        "AEENDAT": "1/SEP/2021",
        "AECTCAE": "Grade 1",
        "AECTCAE_STD": 1.0,
        "AEDAT": "19/AUG/2021",
        "AEREL": "Reasonable Possible Correlation",
        "AEREL_STD": 2.0,
        "AEACN": "No Changed",
        "AEACN_STD": 1.0,
        "AEOUT": "Recovered/Resolved",
        "AEOUT_STD": 1.0,
        "AESER": "No",
        "AESER_STD": 2.0,
        "SAEDAT": NaN,
        "SAE01": 0,
        "SAE02": 0,
        "SAE03": 0,
        "SAE04": 0,
        "SAE05": 0,
        "SAE06": 0,
        "H_NOW": "25 JUL 2022 10:52:05",
        "Site": "SITE_014",
        "Subject": "SUBJ_0051"
      },
      {
        "projectid": 633,
        "project": "2020-689-00CH3",
        "studyid": 14,
        "environmentName": "Prod",
        "subjectId": 1801,
        "StudySiteId": 51,
        "siteid": 41,
        "SiteNumber": "2020-689-00CH3-05",
        "SiteGroup": "World",
        "instanceId": 27467,
        "InstanceName": "Common Page",
        "InstanceRepeatNumber": 0,
        "folderid": 4120,
        "Folder": "COM",
        "FolderName": "Common Page",
        "FolderSeq": 42,
        "TargetDays": NaN,
        "DataPageId": 210520,
        "DataPageName": "Adverse Event",
        "PageRepeatNumber": 0,
        "RecordDate": NaN,
        "RecordId": 343944,
        "RecordPosition": 1,
        "MinCreated": "2021-09-29 10:04:09.323000",
        "MaxUpdated": "2022-07-21 05:32:37.687000",
        "SaveTS": "2022-07-21 06:01:17.937000",
        "StudyEnvSiteNumber": 5,
        "AEYN": "Yes",
        "AEYN_STD": 1,
        "AETERM": "Exanthema",
        "AESTDAT": "16/Aug/2021",
        "AETPT": NaN,
        "AETPT_STD": NaN,
        "AEENDAT": "18/Aug/2021",
        "AECTCAE": "Grade 1",
        "AECTCAE_STD": 1.0,
        "AEDAT": "16/Aug/2021",
        "AEREL": "Reasonable Possible Correlation",
        "AEREL_STD": 2.0,
        "AEACN": "No Changed",
        "AEACN_STD": 1.0,
        "AEOUT": "Recovered/Resolved",
        "AEOUT_STD": 1.0,
        "AESER": "No",
        "AESER_STD": 2.0,
        "SAEDAT": NaN,
        "SAE01": 0,
        "SAE02": 0,
        "SAE03": 0,
        "SAE04": 0,
        "SAE05": 0,
        "SAE06": 0,
        "H_NOW": "19 JUL 2022 15:24:23",
        "Site": "SITE_003",
        "Subject": "SUBJ_0042"
      },
      {
        "projectid": 633,
        "project": "2020-689-00CH3",
        "studyid": 14,
        "environmentName": "Prod",
        "subjectId": 1721,
        "StudySiteId": 48,
        "siteid": 38,
        "SiteNumber": "2020-689-00CH3-02",
        "SiteGroup": "World",
        "instanceId": 26575,
        "InstanceName": "Common Page",
        "InstanceRepeatNumber": 0,
        "folderid": 4120,
        "Folder": "COM",
        "FolderName": "Common Page",
        "FolderSeq": 42,
        "TargetDays": NaN,
        "DataPageId": 203512,
        "DataPageName": "Adverse Event",
        "PageRepeatNumber": 0,
        "RecordDate": NaN,
        "RecordId": 349043,
        "RecordPosition": 4,
        "MinCreated": "2021-09-01 02:30:55.950000",
        "MaxUpdated": "2022-07-21 08:30:33.287000",
        "SaveTS": "2022-07-22 01:02:21.107000",
        "StudyEnvSiteNumber": 2,
        "AEYN": "Yes",
        "AEYN_STD": 1,
        "AETERM": "Lymphocyte count decreased",
        "AESTDAT": "25/Aug/2021",
        "AETPT": NaN,
        "AETPT_STD": NaN,
        "AEENDAT": "22/Sep/2021",
        "AECTCAE": "Grade 1",
        "AECTCAE_STD": 1.0,
        "AEDAT": "25/Aug/2021",
        "AEREL": "Reasonable Possible Correlation",
        "AEREL_STD": 2.0,
        "AEACN": "No Changed",
        "AEACN_STD": 1.0,
        "AEOUT": "Recovered/Resolved",
        "AEOUT_STD": 1.0,
        "AESER": "No",
        "AESER_STD": 2.0,
        "SAEDAT": NaN,
        "SAE01": 0,
        "SAE02": 0,
        "SAE03": 0,
        "SAE04": 0,
        "SAE05": 0,
        "SAE06": 0,
        "H_NOW": "02 JUN 2022 17:14:52",
        "Site": "SITE_027",
        "Subject": "SUBJ_0019"
      },
      {
        "projectid": 633,
        "project": "2020-689-00CH3",
        "studyid": 14,
        "environmentName": "Prod",
        "subjectId": 1721,
        "StudySiteId": 48,
        "siteid": 38,
        "SiteNumber": "2020-689-00CH3-02",
        "SiteGroup": "World",
        "instanceId": 26575,
        "InstanceName": "Common Page",
        "InstanceRepeatNumber": 0,
        "folderid": 4120,
        "Folder": "COM",
        "FolderName": "Common Page",
        "FolderSeq": 42,
        "TargetDays": NaN,
        "DataPageId": 203512,
        "DataPageName": "Adverse Event",
        "PageRepeatNumber": 0,
        "RecordDate": NaN,
        "RecordId": 349044,
        "RecordPosition": 5,
        "MinCreated": "2021-09-01 02:33:38.117000",
        "MaxUpdated": "2022-07-21 08:30:33.367000",
        "SaveTS": "2022-07-22 01:02:21.107000",
        "StudyEnvSiteNumber": 2,
        "AEYN": "Yes",
        "AEYN_STD": 1,
        "AETERM": "Aspartate aminotransferase increased",
        "AESTDAT": "25/Aug/2021",
        "AETPT": NaN,
        "AETPT_STD": NaN,
        "AEENDAT": "22/Sep/2021",
        "AECTCAE": "Grade 1",
        "AECTCAE_STD": 1.0,
        "AEDAT": "25/Aug/2021",
        "AEREL": "Reasonable Possible Correlation",
        "AEREL_STD": 2.0,
        "AEACN": "No Changed",
        "AEACN_STD": 1.0,
        "AEOUT": "Recovered/Resolved",
        "AEOUT_STD": 1.0,
        "AESER": "No",
        "AESER_STD": 2.0,
        "SAEDAT": NaN,
        "SAE01": 0,
        "SAE02": 0,
        "SAE03": 0,
        "SAE04": 0,
        "SAE05": 0,
        "SAE06": 0,
        "H_NOW": "02 JUN 2022 17:14:52",
        "Site": "SITE_027",
        "Subject": "SUBJ_0019"
      },
      {
        "projectid": 633,
        "project": "2020-689-00CH3",
        "studyid": 14,
        "environmentName": "Prod",
        "subjectId": 1721,
        "StudySiteId": 48,
        "siteid": 38,
        "SiteNumber": "2020-689-00CH3-02",
        "SiteGroup": "World",
        "instanceId": 26575,
        "InstanceName": "Common Page",
        "InstanceRepeatNumber": 0,
        "folderid": 4120,
        "Folder": "COM",
        "FolderName": "Common Page",
        "FolderSeq": 42,
        "TargetDays": NaN,
        "DataPageId": 203512,
        "DataPageName": "Adverse Event",
        "PageRepeatNumber": 0,
        "RecordDate": NaN,
        "RecordId": 349045,
        "RecordPosition": 6,
        "MinCreated": "2021-09-01 02:35:19.743000",
        "MaxUpdated": "2022-07-21 08:30:33.430000",
        "SaveTS": "2022-07-22 01:02:21.107000",
        "StudyEnvSiteNumber": 2,
        "AEYN": "Yes",
        "AEYN_STD": 1,
        "AETERM": "Alanine aminotransferase increased",
        "AESTDAT": "25/Aug/2021",
        "AETPT": NaN,
        "AETPT_STD": NaN,
        "AEENDAT": "03/Sep/2021",
        "AECTCAE": "Grade 2",
        "AECTCAE_STD": 2.0,
        "AEDAT": "25/Aug/2021",
        "AEREL": "Reasonable Possible Correlation",
        "AEREL_STD": 2.0,
        "AEACN": "Dosed Temporarily Interrupted",
        "AEACN_STD": 2.0,
        "AEOUT": "Recovered/Resolved",
        "AEOUT_STD": 1.0,
        "AESER": "No",
        "AESER_STD": 2.0,
        "SAEDAT": NaN,
        "SAE01": 0,
        "SAE02": 0,
        "SAE03": 0,
        "SAE04": 0,
        "SAE05": 0,
        "SAE06": 0,
        "H_NOW": "02 JUN 2022 17:14:52",
        "Site": "SITE_027",
        "Subject": "SUBJ_0019"
      }
    ]
  },
  "step2_retrieve_sdtm_rules": {
    "success": true,
    "query": "[AE] AE domain requirements and mandatory variables",
    "chunks_count": 5,
    "formatted": "[page 135 | score 0.727]  that are assessed as efficacy endpoints). The events included in the AE dataset should be consistent with the protocol requirements. Adverse events may be captured either as free text or via a pre-specified list of terms. 2. Adverse Event Description and Coding a. AETERM captures the verbatim term collected for the event. It is the topic variable for the AE dataset. AETERM is a required variable and must have a value. b. AEMODIFY is a permissible variable and should be included if the sponsor's procedure permits modification of a verbatim term for coding. The modified term is listed in AEMODIFY. The variable should be populated as per the sponsor's procedures. c. AEDECOD is the preferred term derived by the sponsor from the coding dictionary. It is a required variable and must have a value. It is expected that the reported term (AETERM) will be coded using a standard dictionary such as MedDRA. The sponsor is expected to provide the dictionary name and version used to map the terms uti\n[page 420 | score 0.715] or naming QNAM and some sponsors may choose to include the 2-character domain in the QNAM variable name. Note that the 2-character domain code is not required in QNAM since it is present in the variable RDOMAIN in the SUPP-- datasets. QNAM QLABEL Applicable Domains AESOSP Other Medically Important SAE AE AETRTEM Treatment Emergent Flag AE --CLSIG Clinically Significant Findings --REAS Reason All general observation classes\n[page 423 | score 0.709] e o Hyperlinking references to sections of the document o Referring to \"Define-XML Document\" instead of \"define.xml\" or \"define.xml file\" • Example content has been highlighted using a gray vertical line on the left side of the text. • Many small changes to wording, intended to clarify meaning, were made, but are not detailed here. • Updated assumptions for most domains: o Domain definitions, where present in an assumption, were removed to eliminate red undancy. o Revised assumptions describing variables \"generally not used\" in a domain to clarify the variables that can be added to those in the domain specification, and that those listed as \"generally not used\" are not prohibited. • Terms in examples were updated to use current controlled terminology, where applicable. • For some variables in domain specification tables, more than one codelist is referenced. Section number Section Change 1.1 Purpose Removed outdated language. 1.2 Organization of this Document Added new Section 9 for St\n[page 399 | score 0.706] the standard domain identifiers, STUDYID, DOMAIN, and USUBJID. In addi tion, the variables IDVAR and IDVARVAL are used for identifying the record-level merge/join keys. These keys are used to tie information together by linking records. The specific set of identifiers necessary to properly identify each type of relationship is described in detail in the following sections. Examples of variables that could be used in IDVAR include the following: • The Sequence Number (--SEQ) variable uniquely identifies a record for a given USUBJID within a domain. The variable --SEQ is required in all domains except DM. For example, if a subject has 25 adverse events in the Adverse Event (AE) domain, then 25 unique AESEQ values should be established for this subject. Conventions for establishing and maintaining --SEQ values are sponsor-defined. Values may or may not be sequential depending on data processes and sources. • The Reference Identifier (--REFID) variable can be used to capture a sponsor-defi\n[page 24 | score 0.706]  the value in --OBJ. For example, FACM would store Findings About CM records. See Section 6.4.2, Naming Findings About Domains, for more details. The following rules must be adhered to when splitting a domain into separate datasets to ensure they can be appended back into one domain dataset: 1. The value of DOMAIN must be consistent across the separate datasets as it would have been if they had not been split (e.g., QS, FA). 2. All variables that require a domain prefix (e.g., --TESTCD, --LOC) must use the value of DOMAIN as the prefix value (e.g., QS, FA). 3. --SEQ must be unique within USUBJID for all records across all the split datasets. If there are 1000 records for a USUBJID across the separate datasets, all 1000 records need unique values for -- SEQ."
  },
  "step3_propose_column_mapping": {
    "success": false,
    "error": "未完成前置步骤"
  },
  "step4_transform_to_sdtm": {
    "success": true,
    "output_file": "C:\\Users\\ZhiyangCao\\Desktop\\work\\SDK_test\\sdtm-multi-domain-agent\\data\\output\\SDTM_AE.xlsx",
    "domain": "AE"
  },
  "step5_validate_sdtm": {
    "success": true,
    "record_count": 757,
    "column_count": 22,
    "quality_summary": {
      "error": 2,
      "warning": 1,
      "info": 5,
      "issues": [
        {
          "type": "high_missing_in_expected_var",
          "var": "AEPTCD",
          "count": 755,
          "percentage": 99.74,
          "threshold": {
            "warning": 30.0,
            "error": 50.0
          },
          "severity": "error"
        },
        {
          "type": "high_missing_in_expected_var",
          "var": "AEHLGTCD",
          "count": 755,
          "percentage": 99.74,
          "threshold": {
            "warning": 30.0,
            "error": 50.0
          },
          "severity": "error"
        },
        {
          "type": "high_missing_in_expected_var",
          "var": "AESOCCD",
          "count": 88,
          "percentage": 11.62,
          "threshold": {
            "warning": 30.0,
            "error": 50.0
          },
          "severity": "info"
        },
        {
          "type": "high_missing_in_expected_var",
          "var": "AESTDTC",
          "count": 18,
          "percentage": 2.38,
          "threshold": {
            "warning": 30.0,
            "error": 50.0
          },
          "severity": "info"
        },
        {
          "type": "high_missing_in_expected_var",
          "var": "AEENDTC",
          "count": 213,
          "percentage": 28.14,
          "threshold": {
            "warning": 30.0,
            "error": 50.0
          },
          "severity": "info"
        },
        {
          "type": "high_missing_in_expected_var",
          "var": "AESTDY",
          "count": 18,
          "percentage": 2.38,
          "threshold": {
            "warning": 30.0,
            "error": 50.0
          },
          "severity": "info"
        },
        {
          "type": "high_missing_in_expected_var",
          "var": "AEENDY",
          "count": 213,
          "percentage": 28.14,
          "threshold": {
            "warning": 30.0,
            "error": 50.0
          },
          "severity": "info"
        },
        {
          "type": "seq_not_sequential",
          "var": "AESEQ",
          "severity": "warning",
          "message": "AESEQ not sequential within USUBJID or has gaps"
        }
      ]
    },
    "report_file": "C:\\Users\\ZhiyangCao\\Desktop\\work\\SDK_test\\sdtm-multi-domain-agent\\data\\output\\report_AE.json"
  }
}