[MAPPING] 源列别名匹配: AESTDAT → AESTDTC
[MAPPING] 源列别名匹配: AEENDAT → AEENDTC
[MAPPING] 源列别名匹配: CTCAE → AETOXGR
[MAPPING] 源列别名匹配: RecordPosition → AESEQ
{
  "success": true,
  "domain": "AE",
  "proposed_mapping": {
    "AESTDAT": "AESTDTC",
    "AEENDAT": "AEENDTC",
    "CTCAE": "AETOXGR",
    "RecordPosition": "AESEQ",
    "_fixed_domain": "DOMAIN",
    "AETERM": "AETERM",
    "AEREL": "AEREL",
    "AESER": "AESER",
    "AEOUT": "AEOUT",
    "AEYN": "AELLTCD",
    "AEYN_STD": "AEPTCD",
    "AECHAYN": "AEHLTCD",
    "AECHAYN_STD": "AEHLGTCD",
    "AECHA": "AEBDSYCD",
    "AECHA_STD": "AESOCCD",
    "AEACN1": "AEACN",
    "AEONGO2": "AEENRF",
    "studyid": "AESTDY",
    "StudyEnvSiteNumber": "AEENDY",
    "project": "STUDYID",
    "Subject": "SUBJID",
    "_derived_usubjid": "USUBJID"
  },
  "issues": [],
  "unmapped_columns": [
    "projectid",
    "environmentName",
    "subjectId",
    "StudySiteId",
    "siteid",
    "Site",
    "SiteNumber",
    "SiteGroup",
    "instanceId",
    "InstanceName",
    "InstanceRepeatNumber",
    "folderid",
    "Folder",
    "FolderName",
    "FolderSeq",
    "TargetDays",
    "DataPageId",
    "DataPageName",
    "PageRepeatNumber",
    "RecordDate",
    "RecordId",
    "MinCreated",
    "MaxUpdated",
    "SaveTS",
    "AEONGO2_STD",
    "CTCAE_STD",
    "AEACN1_STD",
    "AEACN3",
    "AEACN3_STD",
    "AEREL_STD",
    "AEREL2",
    "AEREL2_STD",
    "AEDLTYN",
    "AEDLTYN_STD",
    "NOACTION",
    "AEACNCM",
    "NONDRUG",
    "OTHER",
    "OTHERSPE",
    "AEIMYN",
    "AEIMYN_STD",
    "AESER_STD",
    "SAEDTH",
    "SAELIFE",
    "HOSPITAL",
    "SIGNIFI",
    "ANOMALY",
    "SAEOTH",
    "AEOUT_STD"
  ]
}
