{"chunk_id": "p0001_c000", "page": 1, "text": "Study Data Tabulation Model Implementation Guide: Human Clinical Trials Version 3.3 (Final) Prepared by the CDISC Submission Data Standards Team R evision History Date Version 2018-11-20 3.3 Final 2013-11-26 3.2 Final 2012-07-16 3.1.3 Final 2008-11-12 3.1.2 Final 2005-08-26 3.1.1 Final 2004-07-14 3.1 See Appendix F f or Representations and Warranties, Limitations of Liability, and Disclaimers. Notes to Readers T his is the implementation guide for human clinical trials corresponding to Version 1.7 of the CDISC Study Data Tabulation Model."}
{"chunk_id": "p0002_c000", "page": 2, "text": "CDISC Study Data Tabulation Model Implementation Guide: Human Clinical Trials (Version 3.3 Final) © 2018 Clinical Data Interchange Standards Consortium, Inc. All rights reserved Page 2 2018-11-20 CONTENTS 1 INTRODUCTION ................................................................................................................. 7 1.1 PURPOSE ................................................................................................................................... 7 1.2 ORGANIZATION OF THIS DOCUMENT ........................................................................................ 7 1.3 RELATIONSHIP TO PRIOR CDISC DOCUMENTS ........................................................................ 7 1.4 HOW TO READ THIS IMPLEMENTATION GUIDE ......................................................................... 8 1.4.1 How to Read a Domain Specification ......................................................................... 9 2 FUNDAMENTALS OF THE SDTM .............."}
{"chunk_id": "p0002_c001", "page": 2, "text": "w to Read a Domain Specification ......................................................................... 9 2 FUNDAMENTALS OF THE SDTM ................................................................................. 11 2.1 OBSERVATIONS AND VARIABLES ........................................................................................... 11 2.2 DATASETS AND DOMAINS ...................................................................................................... 11 2.3 THE GENERAL OBSERVATION CLASS ..................................................................................... 12 2.4 DATASETS OTHER THAN GENERAL OBSERVATION ................................................................ 12 2.5 THE SDTM STANDARD DOMAIN MODELS ............................................................................. 13 2.6 CREATING A NEW DOMAIN .................................................................................................... 14 2.7 SDTM VARIABLES NOT ALLOWED IN SDTMIG"}
{"chunk_id": "p0002_c002", "page": 2, "text": "OMAIN .................................................................................................... 14 2.7 SDTM VARIABLES NOT ALLOWED IN SDTMIG.................................................................... 15 3 SUBMITTING DATA IN STANDARD FORMAT ......................................................... 17 3.1 STANDARD METADATA FOR DATASET CONTENTS AND ATTRIBUTES ..................................... 17 3.2 USING THE CDISC DOMAIN MODELS IN REGULATORY SUBMISSIONS — DATASET METADATA 17 3.2.1 Dataset-Level Metadata ............................................................................................. 17 3.2.1.1 Primary Keys ............................................................................................................. 21 3.2.1.2 CDISC Submission Value-Level Metadata ............................................................... 21 3.2.2 Conformance ............................................................................................................"}
{"chunk_id": "p0002_c003", "page": 2, "text": ".................... 21 3.2.2 Conformance ............................................................................................................. 21 4 ASSUMPTIONS FOR DOMAIN MODELS .................................................................... 23 4.1 GENERAL DOMAIN ASSUMPTIONS .......................................................................................... 23 4.1.1 Review Study Data Tabulation and Implementation Guide ...................................... 23 4.1.2 Relationship to Analysis Datasets ............................................................................. 23 4.1.3 Additional Timing Variables ..................................................................................... 23 4.1.3.1 EPOCH Variable Guidance ....................................................................................... 23 4.1.4 Order of the Variables ............................................................................................... 23 4.1.5 SDTM Core Des"}
{"chunk_id": "p0002_c004", "page": 2, "text": "23 4.1.4 Order of the Variables ............................................................................................... 23 4.1.5 SDTM Core Designations ......................................................................................... 23 4.1.6 Additional Guidance on Dataset Naming .................................................................. 24 4.1.7 Splitting Domains ...................................................................................................... 24 4.1.7.1 Trial Inclusion/Exclusion Criteria ............................................................................. 26 4.1.8 Origin Metadata ......................................................................................................... 27 4.1.8.1 Origin Metadata for Variables ................................................................................... 27 4.1.8.2 Origin Metadata for Records ..................................................................................... 2"}
{"chunk_id": "p0002_c005", "page": 2, "text": "....................... 27 4.1.8.2 Origin Metadata for Records ..................................................................................... 27 4.1.8.3 Assigning Natural Keys in the Metadata ................................................................... 27 4.2 GENERAL VARIABLE ASSUMPTIONS ....................................................................................... 29 4.2.1 Variable-Naming Conventions .................................................................................. 29 4.2.2 Two-Character Domain Identifier ............................................................................. 29 4.2.3 Use of “Subject” and USUBJID ................................................................................ 30 4.2.4 Text Case in Submitted Data ..................................................................................... 30"}
{"chunk_id": "p0003_c000", "page": 3, "text": "CDISC Study Data Tabulation Model Implementation Guide: Human Clinical Trials (Version 3.3 Final) © 2018 Clinical Data Interchange Standards Consortium, Inc. All rights reserved Page 3 2018-11-20 4.2.5 Convention for Missing Values ................................................................................. 31 4.2.6 Grouping Variables and Categorization .................................................................... 31 4.2.7 Submitting Free Text from the CRF .......................................................................... 32 4.2.7.1 \"Specify\" Values for Non-Result Qualifier Variables............................................... 32 4.2.7.2 \"Specify\" Values for Result Qualifier Variables ....................................................... 34 4.2.7.3 \"Specify\" Values for Topic Variables ....................................................................... 34 4.2.8 Multiple Values for a Variable ..................................................................."}
{"chunk_id": "p0003_c001", "page": 3, "text": ".......................................... 34 4.2.8 Multiple Values for a Variable .................................................................................. 35 4.2.8.1 Multiple Values for an Intervention or Event Topic Variable .................................. 35 4.2.8.2 Multiple Values for a Findings Result Variable ........................................................ 35 4.2.8.3 Multiple Values for a Non-Result Qualifier Variable ............................................... 36 4.2.9 Variable Lengths ....................................................................................................... 37 4.3 CODING AND CONTROLLED TERMINOLOGY ASSUMPTIONS .................................................... 37 4.3.1 Types of Controlled Terminology ............................................................................. 37 4.3.2 Controlled Terminology Text Case ........................................................................... 37 4.3.3 Controlled Terminolo"}
{"chunk_id": "p0003_c002", "page": 3, "text": ".. 37 4.3.2 Controlled Terminology Text Case ........................................................................... 37 4.3.3 Controlled Terminology Values ................................................................................ 37 4.3.4 Use of Controlled Terminology and Arbitrary Number Codes ................................. 38 4.3.5 Storing Controlled Terminology for Synonym Qualifier Variables ......................... 38 4.3.6 Storing Topic Variables for General Domain Models .............................................. 38 4.3.7 Use of \"Yes\" and \"No\" Values .................................................................................. 38 4.4 ACTUAL AND RELATIVE TIME ASSUMPTIONS ......................................................................... 39 4.4.1 Formats for Date/Time Variables .............................................................................. 39 4.4.2 Date/Time Precision ..................................................................."}
{"chunk_id": "p0003_c003", "page": 3, "text": "..................................................... 39 4.4.2 Date/Time Precision .................................................................................................. 40 4.4.3 Intervals of Time and Use of Duration for --DUR Variables .................................... 41 4.4.3.1 Intervals of Time and Use of Duration ...................................................................... 41 4.4.3.2 Interval with Uncertainty ........................................................................................... 42 4.4.4 Use of the \"Study Day\" Variables ............................................................................. 42 4.4.5 Clinical Encounters and Visits .................................................................................. 43 4.4.6 Representing Additional Study Days ........................................................................ 43 4.4.7 Use of Relative Timing Variables ..............................................................."}
{"chunk_id": "p0003_c004", "page": 3, "text": "............................................ 43 4.4.7 Use of Relative Timing Variables ............................................................................. 44 4.4.8 Date and Time Reported in a Domain Based on Findings ........................................ 46 4.4.9 Use of Dates as Result Variables .............................................................................. 47 4.4.10 Representing Time Points ......................................................................................... 47 4.4.11 Disease Milestones and Disease Milestone Timing Variables .................................. 50 4.5 OTHER ASSUMPTIONS ............................................................................................................ 52 4.5.1 Original and Standardized Results of Findings and Tests Not Done ........................ 52 4.5.1.1 Original and Standardized Results ............................................................................ 52 4.5.1.2 Tests Not Done .."}
{"chunk_id": "p0003_c005", "page": 3, "text": "52 4.5.1.1 Original and Standardized Results ............................................................................ 52 4.5.1.2 Tests Not Done .......................................................................................................... 53 4.5.1.3 Examples of Original and Standard Units and Test Not Done .................................. 54 4.5.2 Linking of Multiple Observations ............................................................................. 56 4.5.3 Text Strings That Exceed the Maximum Length for General-Observation-Class Domain Variables ...................................................................................................................... 56 4.5.3.1 Test Name (--TEST) Greater than 40 Characters ...................................................... 56 4.5.3.2 Text Strings Greater than 200 Characters in Other Variables ................................... 56 4.5.4 Evaluators in the Interventions and Events Observation Classes ..........."}
{"chunk_id": "p0003_c006", "page": 3, "text": " Characters in Other Variables ................................... 56 4.5.4 Evaluators in the Interventions and Events Observation Classes .............................. 58 4.5.5 Clinical Significance for Findings Observation Class Data ...................................... 59 4.5.6 Supplemental Reason Variables ................................................................................ 59"}
{"chunk_id": "p0004_c000", "page": 4, "text": "CDISC Study Data Tabulation Model Implementation Guide: Human Clinical Trials (Version 3.3 Final) © 2018 Clinical Data Interchange Standards Consortium, Inc. All rights reserved Page 4 2018-11-20 4.5.7 Presence or Absence of Pre-Specified Interventions and Events .............................. 60 4.5.8 Accounting for Long-Term Follow-up ...................................................................... 60 4.5.9 Baseline Values ......................................................................................................... 61 5 MODELS FOR SPECIAL PURPOSE DOMAINS .......................................................... 62 5.1 COMMENTS ............................................................................................................................ 62 5.2 DEMOGRAPHICS ..................................................................................................................... 64 5.3 SUBJECT ELEMENTS ........................................................."}
{"chunk_id": "p0004_c001", "page": 4, "text": ".................................................................... 64 5.3 SUBJECT ELEMENTS ............................................................................................................... 74 5.4 SUBJECT DISEASE MILESTONES.............................................................................................. 80 5.5 SUBJECT VISITS ...................................................................................................................... 82 6 DOMAIN MODELS BASED ON THE GENERAL OBSERVATION CLASSES ....... 86 6.1 MODELS FOR INTERVENTIONS DOMAINS ................................................................................ 86 6.1.1 Procedure Agents ...................................................................................................... 86 6.1.2 Concomitant and Prior Medications .......................................................................... 92 6.1.3 Exposure Domains ................................................................"}
{"chunk_id": "p0004_c002", "page": 4, "text": "........................................................... 92 6.1.3 Exposure Domains .................................................................................................... 98 6.1.3.1 Exposure .................................................................................................................... 98 6.1.3.2 Exposure as Collected ............................................................................................. 101 6.1.3.3 Exposure/Exposure as Collected Examples ............................................................ 106 6.1.4 Meal Data ................................................................................................................ 119 6.1.5 Procedures ............................................................................................................... 123 6.1.6 Substance Use .......................................................................................................... 127 6.2 MODELS FOR EVENTS DOMAINS ....."}
{"chunk_id": "p0004_c003", "page": 4, "text": "Use .......................................................................................................... 127 6.2 MODELS FOR EVENTS DOMAINS ........................................................................................... 132 6.2.1 Adverse Events ........................................................................................................ 132 6.2.2 Clinical Events ........................................................................................................ 140 6.2.3 Disposition ............................................................................................................... 144 6.2.4 Protocol Deviations ................................................................................................. 158 6.2.5 Healthcare Encounters ............................................................................................. 160 6.2.6 Medical History ........................................................................................"}
{"chunk_id": "p0004_c004", "page": 4, "text": "................................... 160 6.2.6 Medical History ....................................................................................................... 165 6.3 MODELS FOR FINDINGS DOMAINS ........................................................................................ 172 6.3.1 Drug Accountability ................................................................................................ 173 6.3.2 Death Details ........................................................................................................... 177 6.3.3 ECG Test Results .................................................................................................... 180 6.3.4 Inclusion/Exclusion Criteria Not Met ..................................................................... 188 6.3.5 Immunogenicity Specimen Assessments ................................................................ 191 6.3.6 Laboratory Test Results ............................................................"}
{"chunk_id": "p0004_c005", "page": 4, "text": "....................................................... 191 6.3.6 Laboratory Test Results ........................................................................................... 194 6.3.7 Microbiology Domains ............................................................................................ 200 6.3.7.1 Microbiology Specimen .......................................................................................... 200 6.3.7.2 Microbiology Susceptibility .................................................................................... 204 6.3.7.3 Microbiology Specimen/Microbiology Susceptibility Examples ........................... 210 6.3.8 Microscopic Findings .............................................................................................. 218 6.3.9 Morphology ............................................................................................................. 223 6.3.10 Morphology/Physiology Domains ..............................................."}
{"chunk_id": "p0004_c006", "page": 4, "text": "............................................................. 223 6.3.10 Morphology/Physiology Domains .......................................................................... 230 6.3.10.1 Generic Morphology/Physiology Specification ...................................................... 230 6.3.10.2 Cardiovascular System Findings ............................................................................. 231 6.3.10.3 Musculoskeletal System Findings ........................................................................... 235 6.3.10.4 Nervous System Findings ........................................................................................ 241"}
{"chunk_id": "p0005_c000", "page": 5, "text": "CDISC Study Data Tabulation Model Implementation Guide: Human Clinical Trials (Version 3.3 Final) © 2018 Clinical Data Interchange Standards Consortium, Inc. All rights reserved Page 5 2018-11-20 6.3.10.5 Ophthalmic Examinations ....................................................................................... 247 6.3.10.6 Reproductive System Findings ................................................................................ 255 6.3.10.7 Respiratory System Findings ................................................................................... 260 6.3.10.8 Urinary System Findings ......................................................................................... 266 6.3.11 Pharmacokinetics Domains ..................................................................................... 270 6.3.11.1 Pharmacokinetics Concentrations ........................................................................... 270 6.3.11.2 Pharmacokinetics Parameters ........................"}
{"chunk_id": "p0005_c001", "page": 5, "text": "trations ........................................................................... 270 6.3.11.2 Pharmacokinetics Parameters .................................................................................. 274 6.3.11.3 Relating PP Records to PC Records ........................................................................ 278 6.3.12 Physical Examination .............................................................................................. 287 6.3.13 Questionnaires, Ratings, and Scales (QRS) Domains ............................................. 290 6.3.13.1 Functional Tests ...................................................................................................... 290 6.3.13.2 Questionnaires ......................................................................................................... 295 6.3.13.3 Disease Response and Clin Classification ............................................................... 300 6.3.14 Subject Characteristics ................."}
{"chunk_id": "p0005_c002", "page": 5, "text": " Response and Clin Classification ............................................................... 300 6.3.14 Subject Characteristics ............................................................................................ 308 6.3.15 Subject Status .......................................................................................................... 310 6.3.16 Tumor/Lesion Domains ........................................................................................... 313 6.3.16.1 Tumor/Lesion Identification .................................................................................... 313 6.3.16.2 Tumor/Lesion Results ............................................................................................. 317 6.3.16.3 Tumor Identification/Tumor Results Examples ...................................................... 320 6.3.17 Vital Signs ............................................................................................................... 326 6.4 FINDINGS"}
{"chunk_id": "p0005_c003", "page": 5, "text": "20 6.3.17 Vital Signs ............................................................................................................... 326 6.4 FINDINGS ABOUT EVENTS OR INTERVENTIONS ..................................................................... 330 6.4.1 When to Use Findings About .................................................................................. 330 6.4.2 Naming Findings About Domains ........................................................................... 331 6.4.3 Variables Unique to Findings About ....................................................................... 331 6.4.4 Findings About ........................................................................................................ 332 6.4.5 Skin Response ......................................................................................................... 346 7 TRIAL DESIGN MODEL DATASETS .......................................................................... 353 7.1 INTRODUCTION TO TRI"}
{"chunk_id": "p0005_c004", "page": 5, "text": "............. 346 7 TRIAL DESIGN MODEL DATASETS .......................................................................... 353 7.1 INTRODUCTION TO TRIAL DESIGN MODEL DATASETS .......................................................... 353 7.1.1 Purpose of Trial Design Model ............................................................................... 353 7.1.2 Definitions of Trial Design Concepts ...................................................................... 354 7.1.3 Current and Future Contents of the Trial Design Model ......................................... 355 7.2 EXPERIMENTAL DESIGN (TA AND TE) ................................................................................. 356 7.2.1 Trial Arms ............................................................................................................... 356 7.2.1.1 Trial Arms Issues ..................................................................................................... 376 7.2.2 Trial Elements .........."}
{"chunk_id": "p0005_c005", "page": 5, "text": " Arms Issues ..................................................................................................... 376 7.2.2 Trial Elements ......................................................................................................... 377 7.2.2.1 Trial Elements Issues ............................................................................................... 380 7.3 SCHEDULE FOR ASSESSMENTS (TV, TD, AND TM) .............................................................. 381 7.3.1 Trial Visits ............................................................................................................... 382 7.3.1.1 Trial Visits Issues .................................................................................................... 384 7.3.2 Trial Disease Assessments ...................................................................................... 385 7.3.3 Trial Disease Milestones ....................................................................................."}
{"chunk_id": "p0005_c006", "page": 5, "text": "............................. 385 7.3.3 Trial Disease Milestones ......................................................................................... 388 7.4 TRIAL SUMMARY AND ELIGIBILITY (TI AND TS) .................................................................. 389 7.4.1 Trial Inclusion/Exclusion Criteria ........................................................................... 390 7.4.2 Trial Summary ......................................................................................................... 391 7.4.2.1 Use of Null Flavor ................................................................................................... 396 7.5 HOW TO MODEL THE DESIGN OF A CLINICAL TRIAL ............................................................ 398"}
{"chunk_id": "p0006_c000", "page": 6, "text": "CDISC Study Data Tabulation Model Implementation Guide: Human Clinical Trials (Version 3.3 Final) © 2018 Clinical Data Interchange Standards Consortium, Inc. All rights reserved Page 6 2018-11-20 8 REPRESENTING RELATIONSHIPS AND DATA ...................................................... 399 8.1 RELATING GROUPS OF RECORDS WITHIN A DOMAIN USING THE --GRPID VARIABLE ........ 400 8.1.1 --GRPID Example ................................................................................................... 400 8.2 RELATING PEER RECORDS .................................................................................................... 401 8.2.1 RELREC Dataset ..................................................................................................... 402 8.2.2 RELREC Dataset Examples .................................................................................... 402 8.3 RELATING DATASETS ..............................................................................................."}
{"chunk_id": "p0006_c001", "page": 6, "text": "............................ 402 8.3 RELATING DATASETS ........................................................................................................... 403 8.3.1 RELREC Dataset Relationship Example ................................................................ 403 8.4 RELATING NON-STANDARD VARIABLES VALUES TO A PARENT DOMAIN ............................ 404 8.4.1 Supplemental Qualifiers – SUPP-- Datasets ........................................................... 405 8.4.2 Submitting Supplemental Qualifiers in Separate Datasets ...................................... 406 8.4.3 SUPP-- Examples .................................................................................................... 407 8.4.4 When Not to Use Supplemental Qualifiers ............................................................. 407 8.5 RELATING COMMENTS TO A PARENT DOMAIN ..................................................................... 408 8.6 HOW TO DETERMINE WHERE DATA BELONG IN SDTM-COMPLIANT"}
{"chunk_id": "p0006_c002", "page": 6, "text": " TO A PARENT DOMAIN ..................................................................... 408 8.6 HOW TO DETERMINE WHERE DATA BELONG IN SDTM-COMPLIANT DATA TABULATIONS . 408 8.6.1 Guidelines for Determining the General Observation Class ................................... 408 8.6.2 Guidelines for Forming New Domains ................................................................... 409 8.6.3 Guidelines for Differentiating Between Events, Findings, and Findings About Events 409 8.7 RELATING STUDY SUBJECTS ................................................................................................ 411 9 STUDY REFERENCES .................................................................................................... 413 9.1 DEVICE IDENTIFIERS ............................................................................................................. 413 9.2 NON-HOST ORGANISM IDENTIFIERS ..................................................................................... 413 9.3"}
{"chunk_id": "p0006_c003", "page": 6, "text": ".................. 413 9.2 NON-HOST ORGANISM IDENTIFIERS ..................................................................................... 413 9.3 PHARMACOGENOMIC/GENETIC BIOMARKER IDENTIFIERS .................................................... 415 10 APPENDICES .................................................................................................................... 416 APPENDIX A: CDISC SDS EXTENDED LEADERSHIP TEAM .......................................................... 416 APPENDIX B: GLOSSARY AND ABBREVIATIONS ........................................................................... 417 APPENDIX C: CONTROLLED TERMINOLOGY ................................................................................. 418 APPENDIX D: CDISC VARIABLE-NAMING FRAGMENTS .............................................................. 421 APPENDIX E: REVISION HISTORY ................................................................................................. 423 APPENDIX F: REPRESE"}
{"chunk_id": "p0006_c004", "page": 6, "text": "APPENDIX E: REVISION HISTORY ................................................................................................. 423 APPENDIX F: REPRESENTATIONS AND WARRANTIES, LIMITATIONS OF LIABILITY, AND DISCLAIMERS ............................................................................................................................... 426"}
{"chunk_id": "p0007_c000", "page": 7, "text": "CDISC Study Data Tabulation Model Implementation Guide: Human Clinical Trials (Version 3.3 Final) © 2018 Clinical Data Interchange Standards Consortium, Inc. All rights reserved Page 7 2018-11-20 1 Introduction 1.1 Purpose This document comprises the CDISC Version 3.3 (v3.3) Study Data Tabulation Model Implementation Guide for Human Clinical Trials (SDTMIG), which has been prepared by the Submissions Data Standards (SDS) team of the Clinical Data Interchange Standards Consortium (CDISC). Like its predecessors, v3.3 is intended to guide the organization, structure, and format of standard clinical trial tabulation datasets submitted to a regulatory authority. Version 3.3 supersedes all prior versions of the SDTMIG. The SDTMIG should be used in close concert with the version 1.7 of the CDISC Study Data Tabulation Model (SDTM, available at http://www.cdisc.org/sdtm ), which describes the general conceptual model for representing clinical study data that is submitted to regulatory authoriti"}
{"chunk_id": "p0007_c001", "page": 7, "text": "tp://www.cdisc.org/sdtm ), which describes the general conceptual model for representing clinical study data that is submitted to regulatory authorities and should be read prior to reading the SDTMIG. Version 3.3 provides specific domain models, assumptions, business rules, and examples for preparing standard tabulation datasets that are based on the SDTM. This document is intended for companies and individuals involved in the collection, preparation, and analysis of clinical data that will be submitted to regulatory authorities. 1.2 Organization of this Document This document is organized into the following sections: • Section 1, Introduction, provides an overall introduction to the v3.3 models and describes changes from prior versions. • Section 2, Fundamentals of the SDTM, recaps the basic concepts of the SDTM, and describes how this implementation guide should be used in concert with the SDTM. • Section 3, Submitting Data in Standard Format, explains how to describe metadata for re"}
{"chunk_id": "p0007_c002", "page": 7, "text": "mplementation guide should be used in concert with the SDTM. • Section 3, Submitting Data in Standard Format, explains how to describe metadata for regulatory submissions, and how to assess conformance with the standards. • Section 4, Assumptions for Domain Models, describes basic concepts, business rules, and assumptions that should be taken into consideration before applying the domain models. • Section 5, Models for Special Purpose Domains, describes special purpose domains, including Demographics, Comments, Subject Visits, and Subject Elements. • Section 6, Domain Models Based on the General Observation Classes, provides specific metadata models based on the three general observation classes, along with assumptions and example dat a. • Section 7, Trial Design Model Datasets, describes domains for trial-level data, with assumptions and examples. • Section 8, Representing Relationships and Data, describes how to represent relationships between separate domains, datasets, and/or recor"}
{"chunk_id": "p0007_c003", "page": 7, "text": " examples. • Section 8, Representing Relationships and Data, describes how to represent relationships between separate domains, datasets, and/or records, and provides information to help sponsors determine where data belong in the SDTM. • Section 9, Study References, provides structures for representing study-specific terminology used in subject data. • Appendices provide additional background material and describe other supplemental material relevant to implementation. 1.3 Relationship to Prior CDISC Documents This document, together with the SDTM, represents the most recent version of the CDISC Submission Data Domain Models. Since all updates are intended to be backward compatible, the term \"v3.x\" is used to refer to Version 3.3 and all subsequent versions. The most significant changes since the prior version, v3.2, include: • Preparation of the SDTMIG in the CDISC wiki environment."}
{"chunk_id": "p0008_c000", "page": 8, "text": "CDISC Study Data Tabulation Model Implementation Guide: Human Clinical Trials (Version 3.3 Final) © 2018 Clinical Data Interchange Standards Consortium, Inc. All rights reserved Page 8 2018-11-20 • Renumbering of sections in Section 4.3, Coding and Controlled Terminology Assumptions , to remove an unnecessary layer. • The following new domain in Section 5, Models for Special Purpose Domains : o Subject Disease Milestones (SM) • The following new domains in Section 6.1, Models for Interventions Domains : o Meal Data (ML) o Procedure Agents (AG) • The following new domain in Section 6.3, Models for Findings Domains: o Functional Tests (FT) • The following body system-based domains in Section 6.3.10, Morphology/Physiology Domains: o Cardiovascular System Findings (CV) o Musculoskeletal System Findings (MK) o Nervous System Findings (NV) o Ophthalmic Examinations (OE) o Respiratory System Findings (RE) o Urinary System Findings (UI) • The following new domain in Section 7, Trial Design Mod"}
{"chunk_id": "p0008_c001", "page": 8, "text": "hthalmic Examinations (OE) o Respiratory System Findings (RE) o Urinary System Findings (UI) • The following new domain in Section 7, Trial Design Model Datasets: o Trial Disease Milestones (TM) • The new Section 9, Study References • The following new domains in Section 9, Study References: o Device Identifiers (DI) o Non-host Organism Identifiers (OI) o Pharmacogenomic/Genetic Biomarker Identifiers (PB) • Updated Controlled Terminology for applicable variables across all domains, if available. A detailed list of changes between versions is provided in Appendix E, Revision History . Version 3.1 was the first fully implementation-ready version of the CDISC Submission Data Standards that was directly referenced by the FDA for use in human clinical studies involving drug products. However, future improvements and enhancements will continue to be made as sponsors gain more experience submitting data in this format. Therefore, CDISC will be preparing regular updates to the implem entation "}
{"chunk_id": "p0008_c002", "page": 8, "text": "to be made as sponsors gain more experience submitting data in this format. Therefore, CDISC will be preparing regular updates to the implem entation guide to provide corrections, clarifications, additional domain models, examples, business rules, and conventions for using the standard domain models. CDISC will produce further documentation for controlled terminology as separate publications, s o sponsors are encouraged to check the CDISC website (http://www.cdisc.org/terminology ) frequently for additional information. See Section 4.3, Coding and Controlled Terminology Assumptions, for the most up-to-date information on applying Controlled Terminology. 1.4 How to Read this Implementation Guide This SDTM Implementation Guide (SDTMIG) is best read online, so the reader can benefit from the many hyperlinks included to both internal and external references. The following guidelines may be helpful in reading this document: 1. First, read the SDTM to gain a general understanding of SDTM con"}
{"chunk_id": "p0008_c003", "page": 8, "text": "rnal references. The following guidelines may be helpful in reading this document: 1. First, read the SDTM to gain a general understanding of SDTM concepts. 2. Next, read Sections 1-3 of this document to review the key concepts for preparing domains and submitting data to regulatory authorities. Refer to Appendix B, Glossary and Abbreviations , as necessary."}
{"chunk_id": "p0009_c000", "page": 9, "text": "CDISC Study Data Tabulation Model Implementation Guide: Human Clinical Trials (Version 3.3 Final) © 2018 Clinical Data Interchange Standards Consortium, Inc. All rights reserved Page 9 2018-11-20 3. Read Section 4, Assumptions for Domain Models. 4. Review Section 5, Models for Special Purpose Domains, and Section 6, Domain Models Based on the General Observation Classes, in detail, referring back to Section 4, Assumptions for Domain Models, as directed. See the implementation examples for each domain to gain an understanding of how to apply the domain models for specific types of data. 5. Read Section 7, Trial Design Model Datasets, to understand the fundamentals of the Trial Design Model and consider how to apply the concepts for typical protocols. 6. Review Section 8, Representing Relationships and Data, to learn advanced concepts of how to express relationships between datasets, records, and additional variables not specifically defined in the models. 7. Review Section 9, Study Refe"}
{"chunk_id": "p0009_c001", "page": 9, "text": "w to express relationships between datasets, records, and additional variables not specifically defined in the models. 7. Review Section 9, Study References, to learn occasions when it is necessary to establish study-specific references that will be used in accordance with subject data. 8. Finally, review the Appendices as appropriate. Appendix C, Controlled Terminology, in particular, describes how CDISC Terminology is centrally managed by the CDISC Controlled Terminology Team. Efforts are made at publication time to ensure all SDTMIG domain/dataset specification tables and/or examples reflect the latest CDISC Terminology; users, however, should refer to https://www.cancer.gov/research/resources/terminology/cdisc as the authoritative source of controlled terminology, as CDISC controlled terminology is updated on a quarterly basis. This implementation guide covers most data collected in human clinical trials, but separate implementation guides provide information about certain data, an"}
{"chunk_id": "p0009_c002", "page": 9, "text": "mplementation guide covers most data collected in human clinical trials, but separate implementation guides provide information about certain data, and should be consulted when needed. • The SDTM Implementation Guide for Associated Persons (SDTMIG-AP) provides structures for representing data collected about persons who are not study subjects. • The SDTM Implementation Guide for Medical Devices (SDTMIG-MD) provides structures for data about devices. • The SDTM Implementation Guide for Pharmacogenomics/Genetics (SDTMIG-PGx) provides structures for pharmacogenetic/genomic data and for data about biospecimens. 1.4.1 How to Read a Domain Specification A domain specification table includes rows for all required and expected variables for a domain and for a set of permissible variables. The permissible variables do not include all the variables that are allowed for the domain; they are a set of variables that the SDS team considered likely to be included. The columns of the table: • Variable"}
{"chunk_id": "p0009_c003", "page": 9, "text": " that are allowed for the domain; they are a set of variables that the SDS team considered likely to be included. The columns of the table: • Variable Name o For variables that do not include a domain prefix, this name is taken directly from the SDTM. o For variables that do include the domain prefix, this name from the SDTM, but with \" --\" placeholder in the SDTM variable name replaced by the domain prefix. • Variable Label: A longer name for the variable. o This may be the same as the label in the SDTM, or it may be customized for the domain. o If a sponsor includes in a dataset an allowable variable not in the domain specification, they will create an appropriate label. • Type: One of the two SAS datatypes, \"Num\" or \"Char\". These values are taken directly from the SDTM. • Controlled Terms, Codelist, or Format o Controlled Terms are represented as hyperlinked text. The domain code in the row for the DOMAIN variable is the most common kind of controlled term represented in domain spec"}
{"chunk_id": "p0009_c004", "page": 9, "text": "resented as hyperlinked text. The domain code in the row for the DOMAIN variable is the most common kind of controlled term represented in domain specifications. o Codelist o An asterisk * indicates that the variable may be subject to controlled terminology.  The controlled terminology might be of a type that would inherently be sponsor defined."}
{"chunk_id": "p0010_c000", "page": 10, "text": "CDISC Study Data Tabulation Model Implementation Guide: Human Clinical Trials (Version 3.3 Final) © 2018 Clinical Data Interchange Standards Consortium, Inc. All rights reserved Page 10 2018-11-20  The controlled terminology might be of a type that could be standardized, but has not yet been developed.  The controlled terminology might be terminology that would be specified in value - level metadata. o A hyperlinked codelist name in parentheses indicates that the variable is subject to the CDISC controlled terminology in the named codelist. o The name of an external code system (e.g., MedDRA, ISO 3166 Alpha-3) may be listed in plain text. o Format: \"ISO8601\" in plain text indicates that the variable values should be formatted in conformance with that standard. • Role: This is taken directly from the SDTM. Note that if a variable is either a Variable Qualifier or a Synonym Qualifier, the SDTM includes the qualified variable, but SDTMIG domain speci fications do not. • CDISC Notes: The"}
{"chunk_id": "p0010_c001", "page": 10, "text": "er a Variable Qualifier or a Synonym Qualifier, the SDTM includes the qualified variable, but SDTMIG domain speci fications do not. • CDISC Notes: The notes may include any of the following: o A description of what the variable means. o Information about how this variable relates to another variable. o Rules for when or how the variable should be populated, or how the contents should be formatted. Examples of values that might appear in the variable. Such examples are only examples, and although they may be CDISC controlled terminology values, their presence in a CDISC note should not be construed as definitive. For authoritative information on CDISC controlled terminology, consult https://www.cancer.gov/research/resources/terminology/cdisc . • Core: Contains one of the three values \"Req\", \"Exp\", or \"Perm\", which are explained further in Section 4.1.5, SDTM Core Designations."}
{"chunk_id": "p0011_c000", "page": 11, "text": "CDISC Study Data Tabulation Model Implementation Guide: Human Clinical Trials (Version 3.3 Final) © 2018 Clinical Data Interchange Standards Consortium, Inc. All rights reserved Page 11 2018-11-20 2 Fundamentals of the SDTM 2.1 Observations and Variables The SDTMIG for Human Clinical Trials is based on the SDTM's general framework for organizing clinical trials information that is to be submitted to regulatory authorities. The SDTM is built around the concept of observations collected about subjects who participated in a clinical study. Each observation can be described by a series of variables, corresponding to a row in a dataset. Each variable can be classified according to its Role. A Role determines the type of information conveyed by the variable about each distinct observation and how it can be used. Variables can be classified into five major roles: • Identifier variables, such as those that identify the study, subject, domain, and sequence number of the record • Topic variables"}
{"chunk_id": "p0011_c001", "page": 11, "text": " five major roles: • Identifier variables, such as those that identify the study, subject, domain, and sequence number of the record • Topic variables, which specify the focus of the observation (such as the name of a lab test) • Timing variables, which describe the timing of the observation (such as start date and end date) • Qualifier variables, which include additional illustrative text or numeric values that describe the results or additional traits of the observation (such as units or descriptive adjectives) • Rule variables, which express an algorithm or executable method to define start, end, and branching or looping conditions in the Trial Design model The set of Qualifier variables can be further categorized into five sub-classes: • Grouping Qualifiers are used to group together a collection of observations within the same domain. Examples include --CAT and --SCAT. • Result Qualifiers describe the specific results associated with the topic variable in a Findings dataset. They "}
{"chunk_id": "p0011_c002", "page": 11, "text": ". Examples include --CAT and --SCAT. • Result Qualifiers describe the specific results associated with the topic variable in a Findings dataset. They answer the question raised by the topic variable. Result Qualifiers are --ORRES, --STRESC, and -- STRESN. • Synonym Qualifiers specify an alternative name for a particular variable in an observation. Examples include -- MODIFY and --DECOD, which are equivalent terms for a --TRT or --TERM topic variable, and • --TEST and --LOINC, which are equivalent terms for a --TESTCD. • Record Qualifiers define additional attributes of the observation record as a whole (rather than describing a particular variable within a record). Examples include --REASND, AESLIFE, and all other SAE flag variables in the AE domain; AGE, SEX, and RACE in the DM domain; and -- BLFL, --POS, --LOC, -- SPEC and --NAM in a Findings domain • Variable Qualifiers are used to further modify or describe a specific variable within an observation and are only meaningful in the co"}
{"chunk_id": "p0011_c003", "page": 11, "text": "ndings domain • Variable Qualifiers are used to further modify or describe a specific variable within an observation and are only meaningful in the context of the variable they qualify. Examples include --ORRESU, --ORNRHI, and --ORNRLO, all of which are Variable Qualifiers of --ORRES; and --DOSU, which is a Variable Qualifier of -- DOSE. For example, in the observation, \"Subject 101 had mild nausea starting on Study Day 6,\" the Topic variable value is the term for the adverse event, \"NAUSEA\". The Identifier variable is the subject identifier, \"101\". The Timing variable is the study day of the start of the event, which captures the information, \"starting on Study Day 6\", while an example of a Record Qualifier is the severity, the value for which is \"MILD\". Additional Timing and Qualifier variables could be included to provide the necessary detail to adequately describe an observation. 2.2 Datasets and Domains Observations about study subjects are normally collected for all subjects in a"}
{"chunk_id": "p0011_c004", "page": 11, "text": " detail to adequately describe an observation. 2.2 Datasets and Domains Observations about study subjects are normally collected for all subjects in a series of domains. A domain is defined as a collection of logically related observations with a common topic. The logic of the relationship may pertain to the scientific subject matter of the data or to its role in the trial. Each domain is represented by a single da taset. Each domain dataset is distinguished by a unique, two-character code that should be used consistently throughout the submission. This code, which is stored in the SDTM variable named DOMAIN, is used in four ways: as the dataset name, the value of the DOMAIN variable in that dataset; as a prefix for most variable names in that"}
{"chunk_id": "p0012_c000", "page": 12, "text": "CDISC Study Data Tabulation Model Implementation Guide: Human Clinical Trials (Version 3.3 Final) © 2018 Clinical Data Interchange Standards Consortium, Inc. All rights reserved Page 12 2018-11-20 dataset; and as a value in the RDOMAIN variable in relationship tables Section 8, Representing Relationships and Data. All datasets are structured as flat files with rows representing observations and columns representing variables. Each dataset is described by metadata definitions that provide information about the variables used in the dataset. The metadata are described in a data definition document, a Define-XML document, that is submitted with the data to regulatory authorities. The Define-XML standard, available at https://www.cdisc.org/standards/transport/define-xml, specifies metadata attributes to describe SDTM data. Data stored in SDTM datasets include both raw (as originally collected) and derived values (e.g., converted into standard units, or computed on the basis of multiple val"}
{"chunk_id": "p0012_c001", "page": 12, "text": " datasets include both raw (as originally collected) and derived values (e.g., converted into standard units, or computed on the basis of multiple values, such as an aver age). The SDTM lists only the name, label, and type, with a set of brief CDISC guidelines that provide a general description for each variable. The domain dataset models included in Section 5, Models for Special Purpo se Domains and Section 6, Domain Models Based on the General Observation Classes of this document provide additional information about Controlled Terms or Format, notes on proper usage, and examples. See Section 1.4.1, How to Read a Domain Specification. 2.3 The General Observation Class Most subject-level observations collected during the study should be represented according to one of the three SDTM general observation classes: Interventions, Events, or Findings. The lists of variables allowed to be used in each of these can be found in the SDTM. • The Interventions class captures investigational, ther"}
{"chunk_id": "p0012_c002", "page": 12, "text": "indings. The lists of variables allowed to be used in each of these can be found in the SDTM. • The Interventions class captures investigational, therapeutic, and other treatments that are administered to the subject (with some actual or expected physiological effect) either as specified by the study protocol (e.g., exposure to study drug), coincident with the study assessment period (e.g., concomitant medications), or self - administered by the subject (such as use of alcohol, tobacco, or caffeine). • The Events class captures planned protocol milestones such as randomization and study completion, and occurrences, conditions, or incidents independent of planned study evaluations occurring during the trial (e.g., adverse events) or prior to the trial (e.g., medical history). • The Findings class captures the observations resulting from planned evaluations to address specific tests or questions such as laboratory tests, ECG testing, and questions listed on questionnaires. In most cases,"}
{"chunk_id": "p0012_c003", "page": 12, "text": "anned evaluations to address specific tests or questions such as laboratory tests, ECG testing, and questions listed on questionnaires. In most cases, the choice of observation class appropriate to a specific collection of data can be easily determined according to the descriptions provided above. The majority of data, which typically consists of measurements or responses to questions, usually at specific visits or time points, will fit the Findings general observation class. Additional guidance on choosing the appropriate general observation class is provided in Section 8.6.1, Guidelines for Determining the General Observation Class. General assumptions for use with all domain models and custom domains based on the general observation classes are described in Section 4, Assumptions for Domain Models; specific assumptions for individual domains are included with the domain models. 2.4 Datasets Other Than General Observation The SDTM includes four types of datasets other than those base"}
{"chunk_id": "p0012_c004", "page": 12, "text": "omains are included with the domain models. 2.4 Datasets Other Than General Observation The SDTM includes four types of datasets other than those based on the general observation classes: • Domain datasets, which include subject-level data that do not conform to one of the three general observation classes. These include Demographics (DM), Comments (CO), Subject Elements (SE), an d Subject Visits (SV),1 and are described in Section 5, Models for Special Purpose Domains. • Trial Design Model (TDM) datasets, which represent information about the study design but do not contain subject data. These include datasets such as Trial Arms (TA) and Trial Elements (TE) and are described in Section 7, Trial Design Model Datasets . 1 SE and SV were included as part of the Trial Design Model in SDTMIG v3.1.1, but were moved in SDTMIG v3.1.2."}
{"chunk_id": "p0013_c000", "page": 13, "text": "CDISC Study Data Tabulation Model Implementation Guide: Human Clinical Trials (Version 3.3 Final) © 2018 Clinical Data Interchange Standards Consortium, Inc. All rights reserved Page 13 2018-11-20 • Relationship datasets, such as the RELREC and SUPP-- datasets. These are described in Section 8, Representing Relationships and Data. • Study Reference datasets, which include Device Identifiers (DI), Non-host Organism Identifiers (OI), and Pharmacogenomic/Genetic Biomarker Identifiers (PB). These provide structures for representing study - specific terminology used in subject data. These are described in Section 9, Study References . 2.5 The SDTM Standard Domain Models A sponsor should only submit domain datasets that were actually collected (or directly derived from the collected data) for a given study. Decisions on what data to collect should be based on the scientific objectives of the study, rather than the SDTM. Note that any data collected that will be submitted in an analysis datas"}
{"chunk_id": "p0013_c001", "page": 13, "text": "uld be based on the scientific objectives of the study, rather than the SDTM. Note that any data collected that will be submitted in an analysis dataset must also appear in a tabulation dataset. The collected data for a given study may use standard domains from this and other SDTM Implementation Guides as well as additional custom domains based on the three general observation classes. A list of standard domains is provided in Section 3.2.1, Dataset-Level Metadata . Final domains will be published only in an SDTM Implementation Guide (the SDTMIG for human clinical trials or another implementation guide, such as the SDTMIG for Medical Devices). Therapeutic area standards projects and other projects may develop proposals for additional domains. Draft versions of these domains may be made available in the CDISC wiki in the SDTM Draft Domains ( https://wiki.cdisc.org/x/s4Iv) area. Starting with SDTMIG v3.3: • A new domain has version 1.0. • An existing version that has changed since the la"}
{"chunk_id": "p0013_c002", "page": 13, "text": " ( https://wiki.cdisc.org/x/s4Iv) area. Starting with SDTMIG v3.3: • A new domain has version 1.0. • An existing version that has changed since the last published version of the SDTMIG is up- versioned. • An existing version that has not changed since the last published version of the SDTMIG is not up- versioned. What constitutes a change for the purposes of deciding a domain version will be developed further, but for SDTMIG v3.3, a domain was assigned a version of v3.3 if there was a change to the specification and/or the assumptions from the domain as it appeared in SDTMIG v3.2. These general rules apply when determining which variables to include in a domain: • The Identifier variables, STUDYID, USUBJID, DOMAIN, and --SEQ are required in all domains based on the general observation classes. Other Identifiers may be added as needed. • Any Timing variables are permissible for use in any submission dataset based on a general observation class except where restricted by specific domain "}
{"chunk_id": "p0013_c003", "page": 13, "text": "ny Timing variables are permissible for use in any submission dataset based on a general observation class except where restricted by specific domain assumptions. • Any additional Qualifier variables from the same general observation class may be added to a domain model except where restricted by specific domain assumptions. • Sponsors may not add any variables other than those described in the preceding three bullets. The addition of non-standard variables will compromise the FDA's ability to populate the data repositor y and to use standard tools. The SDTM allows for the inclusion of a sponsor's non-SDTM variables using the Supplemental Qualifiers special purpose dataset structure, described in Section 8.4, Relating Non-Standard Variables Values to a Parent Domain. As the SDTM continues to evolve over time, certain additional standard variables may be added to the general observation classes. • Standard variables must not be renamed or modified for novel usage. Their metadata should "}
{"chunk_id": "p0013_c004", "page": 13, "text": "ariables may be added to the general observation classes. • Standard variables must not be renamed or modified for novel usage. Their metadata should not be changed. • A Permissible variable should be used in an SDTM dataset wherever appropriate. o If a study includes a data item that would be represented in a Permissible variable, then that variable must be included in the SDTM dataset, even if null. Indicate no data were available for that variable in the Define-XML document. o If a study did not include a data item that would be represented in a Permissible variable, then that variable should not be included in the SDTM dataset and should not be declared in the Define - XML document."}
{"chunk_id": "p0014_c000", "page": 14, "text": "CDISC Study Data Tabulation Model Implementation Guide: Human Clinical Trials (Version 3.3 Final) © 2018 Clinical Data Interchange Standards Consortium, Inc. All rights reserved Page 14 2018-11-20 2.6 Creating a New Domain This section describes the overall process for creating a custom domain, which must be based on one of the three SDTM general observation classes. The number of domains submitted should be based on the specific requirements of the study. Follow the process below to create a custom domain: 1. Confirm that none of the existing published domains will fit the need. A custom domain may only be created if the data are different in nature and do not fit into an existing published domain. • Establish a domain of a common topic (i.e., where the nature of the data is the same), rather than by a specific method of collection (e.g., electrocardiogram, EG). Group and separate data within the domain using --CAT, --SCAT, --METHOD, --SPEC, --LOC, etc. as appropriate. Examples of dif"}
{"chunk_id": "p0014_c001", "page": 14, "text": ", electrocardiogram, EG). Group and separate data within the domain using --CAT, --SCAT, --METHOD, --SPEC, --LOC, etc. as appropriate. Examples of different topics are: microbiology, tumor measurements, pathology/histology, vital signs, and physical exam results. • Do not create separate domains based on time; rather, represent both prior and current observations in a domain (e.g., CM for all non-study medications). Note that AE and MH are an exception to this best practice because of regulatory reporting needs. • How collected data are used (e.g., to support analyses and/or efficacy endpoints) must not result in the creation of a custom domain. For example, if blood pressure measurements are endpoints in a hypertension study, they must still be represented in the VS (Vital Signs) domain, as opposed to a custom \"efficacy\" domain. Similarly, if liver function test results are of special interest, they must still be represented in the LB (Laboratory Tests) domain. • Data that were collec"}
{"chunk_id": "p0014_c002", "page": 14, "text": "y, if liver function test results are of special interest, they must still be represented in the LB (Laboratory Tests) domain. • Data that were collected on separate CRF modules or pages may fit into an existing domain (such as separate questionnaires into the QS domain, or prior and concomitant medications in the CM domain). • If it is necessary to represent relationships between data that are hierarchical in nature (e.g., a parent record must be observed before child records), then establish a domain pair (e.g., MB/M S, PC/PP). Note, domain pairs have been modeled for microbiology data (MB/MS domains) and PK data (PC/PP domains) to enable dataset-level relationships to be described using RELREC. The domain pair uses DOMAIN as an Identifier to group parent records (e.g., MB) from child records (e.g., MS) and enables a dataset-level relationship to be described in RELREC. Without using DOMAIN to facilitate description of the data relationships, RELREC, as currently defined, could not b"}
{"chunk_id": "p0014_c003", "page": 14, "text": "ionship to be described in RELREC. Without using DOMAIN to facilitate description of the data relationships, RELREC, as currently defined, could not be used without introducing a variable that would group data like DOMAIN. 2. Check the SDTM Draft Domains area of CDISC wiki SDTM Draft Domains Home (https://wiki.cdisc.org/x/s4Iv ) for proposed domains developed since the last published version of the SDTMIG. These proposed domains may be used as custom domains in a submission. 3. Look for an existing, relevant domain model to serve as a prototype. If no existing model seems appropriate, choose the general observation class (Interventions, Events, or Findings) that best fits the data by considering the topic of the observation The general approach for selecting variables for a custom domain is as follows (also see Figure 2.6, Creating a New Domain, below). a. Select and include the required identifier variables (e.g., STUDYID, DOMAIN, USUBJID, --SEQ) and any permissible Identifier variabl"}
{"chunk_id": "p0014_c004", "page": 14, "text": "Domain, below). a. Select and include the required identifier variables (e.g., STUDYID, DOMAIN, USUBJID, --SEQ) and any permissible Identifier variables from the SDTM. b. Include the topic variable from the identified general observation class (e.g., --TESTCD for Findings) in the SDTM. c. Select and include the relevant qualifier variables from the identified general observation class in the SDTM. Variables belonging to other general observation classes must not be added. d. Select and include the applicable timing variables in the SDTM. e. Determine the domain code, one that is not a domain code in the CDISC Controlled Terminology codelist \"SDTM Domain Abbreviations\" available at http://www.cancer.gov/research/resources/terminology/cdisc . If it desired to have this domain code as part of CDISC controlled terminology, then submit a request to https://ncitermform.nci.nih.gov/ncitermform/?version=cdisc. The sponsor-selected, two-character domain code should be used consistently througho"}
{"chunk_id": "p0014_c005", "page": 14, "text": "st to https://ncitermform.nci.nih.gov/ncitermform/?version=cdisc. The sponsor-selected, two-character domain code should be used consistently throughout the submission."}
{"chunk_id": "p0015_c000", "page": 15, "text": "CDISC Study Data Tabulation Model Implementation Guide: Human Clinical Trials (Version 3.3 Final) © 2018 Clinical Data Interchange Standards Consortium, Inc. All rights reserved Page 15 2018-11-20 f. Apply the two-character domain code to the appropriate variables in the domain. Replace all variable prefixes (shown in the models as two hyphens \"--\") with the domain code. g. Set the order of variables consistent with the order defined in the SDTM for the general observation class. h. Adjust the labels of the variables only as appropriate to properly convey the meaning in the context of the data being submitted in the newly created domain. Use title case for all labels (title case means to capitalize the first letter of every word except for articles, prepositions, and conjunctions). i. Ensure that appropriate standard variables are being properly applied by comparing their use in the custom domain to their use in standard domains. j. Describe the dataset within the Define-XML document. "}
{"chunk_id": "p0015_c001", "page": 15, "text": "roperly applied by comparing their use in the custom domain to their use in standard domains. j. Describe the dataset within the Define-XML document. See Section 3.2, Using the CDISC Domain Models in Regulatory Submissions — Dataset Metadata. k. Place any non-standard (SDTM) variables in a Supplemental Qualifier dataset. Mechanisms for representing additional non-standard qualifier variables not described in the general observation classes and for defining relationships between separate datasets or records are described in Section 8.4, Relating Non- Standard Variables Values to a Parent Domain. Figure 2.6: Creating a New Domain 2.7 SDTM Variables Not Allowed in SDTMIG This section identifies those SDTM variables that either 1) should not be used in SDTM-compliant data tabulations of clinical trials data or 2) have not yet been evaluated for use in human clinical trials. The following SDTM variables, defined for use in non-clinical studies (SEND), must NEVER be used in the submission of"}
{"chunk_id": "p0015_c002", "page": 15, "text": "or use in human clinical trials. The following SDTM variables, defined for use in non-clinical studies (SEND), must NEVER be used in the submission of SDTM-based data for human clinical trials: • --USCHFL (Interventions, Events, Findings) • --DTHREL (Findings) • --EXCLFL (Findings) • --REASEX (Findings) • --IMPLBL (Findings) FETUSID (Identifiers)"}
{"chunk_id": "p0016_c000", "page": 16, "text": "CDISC Study Data Tabulation Model Implementation Guide: Human Clinical Trials (Version 3.3 Final) © 2018 Clinical Data Interchange Standards Consortium, Inc. All rights reserved Page 16 2018-11-20 • --DETECT (Timing Variables) • --NOMDY (Timing Variables) • --NOMLBL (Timing Variables) The following variables can be used for non-clinical studies (SEND) but must NEVER be used in the Demographics domain for human clinical trials, where all subjects are human. See Section 9.2, Non -host Organism Identifiers (OI), for information about representing taxonomic information for non-host organisms such as bacteria and viruses. • SPECIES (Demographics) • STRAIN (Demographics) • SBSTRAIN (Demographics) The following variables have not been evaluated for use in human clinical trials and must therefore be used with extreme caution: • --METHOD (Interventions) • --ANTREG (Findings) • --CHRON (Findings) • --DISTR (Findings) SETCD (Demographics) The following identifier variable can be used for non-clin"}
{"chunk_id": "p0016_c001", "page": 16, "text": "tions) • --ANTREG (Findings) • --CHRON (Findings) • --DISTR (Findings) SETCD (Demographics) The following identifier variable can be used for non-clinical studies (SEND), and may be used in human clinical trials when appropriate: • POOLID Other variables defined in the SDTM are allowed for use as defined in this SDTMIG except when explicitly stated. Custom domains, created following the guidance in Section 2.6, Creating a New Domain , may utilize any appropriate Qualifier variables from the selected general observation class. The use of SETCD additionally requires the use of the Trials Sets domain. The use of POOLID additionally requires the use of the Pool Definition dataset."}
{"chunk_id": "p0017_c000", "page": 17, "text": "CDISC Study Data Tabulation Model Implementation Guide: Human Clinical Trials (Version 3.3 Final) © 2018 Clinical Data Interchange Standards Consortium, Inc. All rights reserved Page 17 2018-11-20 3 Submitting Data in Standard Format 3.1 Standard Metadata for Dataset Contents and Attributes The SDTMIG provides standard descriptions of some of the most commonly used data domains, with metadata attributes. These include descriptive metadata attributes that should be included in a Define-XML document. In addition, the CDISC domain models include two shaded columns that are not sent to the FDA. These columns assist sponsors in preparing their datasets: • \"CDISC Notes\" is for notes to the sponsor regarding the relevant use of each variable. • \"Core\" indicates how a variable is classified (see Section 4.1.5, SDTM Core Desi gnations ). The domain models in Section 6, Domain Models Based on the General Observation Classes illustrate how to apply the SDTM when creating a specific domain dataset"}
{"chunk_id": "p0017_c001", "page": 17, "text": "n models in Section 6, Domain Models Based on the General Observation Classes illustrate how to apply the SDTM when creating a specific domain dataset. In particular, these models illustrate the s election of a subset of the variables offered in one of the general observation classes, along with applicable timing variables. The models also show how a standard variable from a general observation class should be adjusted to meet the specific content needs of a particular domain, including making the label more meaningful, specifying controlled terminology, and creating domain-specific notes and examples. Thus the domain models not only demonstrate how to apply the model for the most common domains, but also give insight on how to apply general model concepts to other domains not yet defined by CDISC. 3.2 Using the CDISC Domain Models in Regulatory Submissions — Dataset Metadata The Define-XML document that accompanies a submission should also describe each dataset that is included in the"}
{"chunk_id": "p0017_c002", "page": 17, "text": "ulatory Submissions — Dataset Metadata The Define-XML document that accompanies a submission should also describe each dataset that is included in the submission and describe the natural key structure of each dataset. While most studies will include DM and a set of safety domains based on the three general observation classes (typically including EX, CM, AE, DS, MH, LB, and VS), the actual choice of which data to submit will depend on the protocol and the needs of the regulatory reviewer. Dataset definition metadata should include the dataset filenames, descriptions, locations, structures, class, purpose, and keys, as shown in Section 3.2.1, Dataset-Level Metadata . In addition, comments can also be provided where needed. In the event that no records are present in a dataset (e.g., a small PK study where no subjects took concomitant medications), the empty dataset should not be submitted and should not be described in the Define -XML document. The annotated CRF will show the data that "}
{"chunk_id": "p0017_c003", "page": 17, "text": "ations), the empty dataset should not be submitted and should not be described in the Define -XML document. The annotated CRF will show the data that would have been submitted had data been received; it need not be re - annotated to indicate that no records exist. 3.2.1 Dataset-Level Metadata Note that the key variables shown in this table are examples only. A sponsor's actual key structure may be different."}
{"chunk_id": "p0018_c000", "page": 18, "text": "CDISC Study Data Tabulation Model Implementation Guide: Human Clinical Trials (Version 3.3 Final) © 2018 Clinical Data Interchange Standards Consortium, Inc. All rights reserved Page 18 2018-11-20 Dataset Description Class Structure Purpose Keys Location CO Comments Special Purpose One record per comment per subject Tabulation STUDYID, USUBJID, IDVAR, COREF, CODTC co.xpt DM Demographics Special Purpose One record per subject Tabulation STUDYID, USUBJID dm.xpt SE Subject Elements Special Purpose One record per actual Element per subject Tabulation STUDYID, USUBJID, ETCD, SESTDTC se.xpt SM Subject Disease Milestones Special Purpose One record per Disease Milestone per subject Tabulation STUDYID, USUBJID, MIDS sm.xpt SV Subject Visits Special Purpose One record per subject per actual visit Tabulation STUDYID, USUBJID, VISITNUM sv.xpt AG Procedure Agents Interventions One record per recorded intervention occurrence per subject Tabulation STUDYID, USUBJID, AGTRT, AGSTDTC ag.xpt CM Concomita"}
{"chunk_id": "p0018_c001", "page": 18, "text": "edure Agents Interventions One record per recorded intervention occurrence per subject Tabulation STUDYID, USUBJID, AGTRT, AGSTDTC ag.xpt CM Concomitant/Prior Medications Interventions One record per recorded intervention occurrence or constant-dosing interval per subject Tabulation STUDYID, USUBJID, CMTRT, CMSTDTC cm.xpt EC Exposure as Collected Interventions One record per protocol-specified study treatment, collected-dosing interval, per subject, per mood Tabulation STUDYID, USUBJID, ECTRT, ECSTDTC, ECMOOD ec.xpt EX Exposure Interventions One record per protocol-specified study treatment, constant-dosing interval, per subject Tabulation STUDYID, USUBJID, EXTRT, EXSTDTC ex.xpt ML Meal Data Interventions One record per food product occurrence or constant intake interval per subject Tabulation STUDYID, USUBJID, MLTRT, MLSTDTC ml.xpt PR Procedures Interventions One record per recorded procedure per occurrence per subject Tabulation STUDYID, USUBJID, PRTRT, PRSTDTC pr.xpt SU Substance Us"}
{"chunk_id": "p0018_c002", "page": 18, "text": "ocedures Interventions One record per recorded procedure per occurrence per subject Tabulation STUDYID, USUBJID, PRTRT, PRSTDTC pr.xpt SU Substance Use Interventions One record per substance type per reported occurrence per subject Tabulation STUDYID, USUBJID, SUTRT, SUSTDTC su.xpt AE Adverse Events Events One record per adverse event per subject Tabulation STUDYID, USUBJID, AEDECOD, AESTDTC ae.xpt CE Clinical Events Events One record per event per subject Tabulation STUDYID, USUBJID, CETERM, CESTDTC ce.xpt DS Disposition Events One record per disposition status or protocol milestone per subject Tabulation STUDYID, USUBJID, DSDECOD, DSSTDTC ds.xpt DV Protocol Deviations Events One record per protocol deviation per subject Tabulation STUDYID, USUBJID, DVTERM, DVSTDTC dv.xpt HO Healthcare Encounters Events One record per healthcare encounter per subject Tabulation STUDYID, USUBJID, HOTERM, HOSTDTC ho.xpt MH Medical History Events One record per medical history event per subject Tabulatio"}
{"chunk_id": "p0018_c003", "page": 18, "text": "r per subject Tabulation STUDYID, USUBJID, HOTERM, HOSTDTC ho.xpt MH Medical History Events One record per medical history event per subject Tabulation STUDYID, USUBJID, MHDECOD mh.xpt CV Cardiovascular System Findings Findings One record per finding or result per time point per visit per subject Tabulation STUDYID, USUBJID, VISITNUM, CVTESTCD, CVTPTREF, CVTPTNUM cv.xpt DA Drug Accountability Findings One record per drug accountability finding per subject Tabulation STUDYID, USUBJID, DATESTCD, DADTC da.xpt DD Death Details Findings One record per finding per subject Tabulation STUDYID, USUBJID, DDTESTCD, DDDTC dd.xpt EG ECG Test Results Findings One record per ECG observation per replicate per time point or one record per ECG observation per beat per visit per subject Tabulation STUDYID, USUBJID, EGTESTCD, VISITNUM, EGTPTREF, EGTPTNUM eg.xpt FA Findings About Events or Interventions Findings One record per finding, per object, per time point, per visit per subject Tabulation STUDYID, U"}
{"chunk_id": "p0018_c004", "page": 18, "text": "xpt FA Findings About Events or Interventions Findings One record per finding, per object, per time point, per visit per subject Tabulation STUDYID, USUBJID, FATESTCD, FAOBJ, VISITNUM, FATPTREF, FATPTNUM fa.xpt FT Functional Tests Findings One record per Functional Test finding per time point per visit per subject Tabulation STUDYID, USUBJID, TESTCD, VISITNUM, FTTPTREF, FTTPTNUM ft.xpt IE Inclusion/Exclusion Criteria Not Met Findings One record per inclusion/exclusion criterion not met per subject Tabulation STUDYID, USUBJID, IETESTCD ie.xpt IS Immunogenicity Specimen Assessments Findings One record per test per visit per subject Tabulation STUDYID, USUBJID, ISTESTCD, VISITNUM is.xpt"}
{"chunk_id": "p0019_c000", "page": 19, "text": "CDISC Study Data Tabulation Model Implementation Guide: Human Clinical Trials (Version 3.3 Final) © 2018 Clinical Data Interchange Standards Consortium, Inc. All rights reserved Page 19 2018-11-20 Dataset Description Class Structure Purpose Keys Location LB Laboratory Test Results Findings One record per lab test per time point per visit per subject Tabulation STUDYID, USUBJID, LBTESTCD, LBSPEC, VISITNUM, LBTPTREF, LBTPTNUM lb.xpt MB Microbiology Specimen Findings One record per microbiology specimen finding per time point per visit per subject Tabulation STUDYID, USUBJID, MBTESTCD, VISITNUM, MBTPTREF, MBTPTNUM mb.xpt MI Microscopic Findings Findings One record per finding per specimen per subject Tabulation STUDYID, USUBJID, MISPEC, MITESTCD mi.xpt MK Musculoskeletal System Findings Findings One record per assessment per visit per subject Tabulation STUDYID, USUBJID, VISITNUM, MKTESTCD, MKLOC, MKLAT mk.xpt MO Morphology Findings One record per Morphology finding per location per time "}
{"chunk_id": "p0019_c001", "page": 19, "text": "t Tabulation STUDYID, USUBJID, VISITNUM, MKTESTCD, MKLOC, MKLAT mk.xpt MO Morphology Findings One record per Morphology finding per location per time point per visit per subject Tabulation STUDYID, USUBJID, VISITNUM, MOTESTCD, MOLOC, MOLAT mo.xpt MS Microbiology Susceptibility Findings One record per microbiology susceptibility test (or other organism-related finding) per organism found in MB Tabulation STUDYID, USUBJID, MSTESTCD, VISITNUM, MSTPTREF, MSTPTNUM ms.xpt NV Nervous System Findings Findings One record per finding per location per time point per visit per subject Tabulation STUDYID, USUBJID, VISITNUM, CVTPTNUM, CVLOC, NVTESTCD nv.xpt OE Ophthalmic Examinations Findings One record per ophthalmic finding per method per location, per time point per visit per subject Tabulation STUDYID, USUBJID, FOCID, OETESTCD, OETSTDTL, OEMETHOD, OELOC, OELAT, OEDIR, VISITNUM, OEDTC, OETPTREF, OETPTNUM, OEREPNUM oe.xpt PC Pharmacokinetics Concentrations Findings One record per sample characteri"}
{"chunk_id": "p0019_c002", "page": 19, "text": "OELOC, OELAT, OEDIR, VISITNUM, OEDTC, OETPTREF, OETPTNUM, OEREPNUM oe.xpt PC Pharmacokinetics Concentrations Findings One record per sample characteristic or time-point concentration per reference time point or per analyte per subject Tabulation STUDYID, USUBJID, PCTESTCD, VISITNUM, PCTPTREF, PCTPTNUM pc.xpt PE Physical Examination Findings One record per body system or abnormality per visit per subject Tabulation STUDYID, USUBJID, PETESTCD, VISITNUM pe.xpt PP Pharmacokinetics Parameters Findings One record per PK parameter per time-concentration profile per modeling method per subject Tabulation STUDYID, USUBJID, PPTESTCD, PPCAT, VISITNUM, PPTPTREF pp.xpt QS Questionnaires Findings One record per questionnaire per question per time point per visit per subject Tabulation STUDYID, USUBJID, QSCAT, QSSCAT, VISITNUM, QSTESTCD qs.xpt RE Respiratory System Findings Findings One record per finding or result per time point per visit per subject Tabulation STUDYID, USUBJID, VISITNUM, RETESTCD, "}
{"chunk_id": "p0019_c003", "page": 19, "text": "atory System Findings Findings One record per finding or result per time point per visit per subject Tabulation STUDYID, USUBJID, VISITNUM, RETESTCD, RETPTNUM, REREPNUM re.xpt RP Reproductive System Findings Findings One record per finding or result per time point per visit per subject Tabulation STUDYID, DOMAIN, USUBJID, RPTESTCD, VISITNUM rp.xpt RS Disease Response and Clin Classification Findings One record per response assessment or clinical classification assessment per time point per visit per subject per assessor per medical evaluator Tabulation STUDYID, USUBJID, RSTESTCD, VISITNUM, RSTPTREF, RSTPTNUM, RSEVAL, RSEVALID rs.xpt SC Subject Characteristics Findings One record per characteristic per subject. Tabulation STUDYID, USUBJID, SCTESTCD sc.xpt SR Skin Response Findings One record per finding, per object, per time point, per visit per subject Tabulation STUDYID, USUBJID, SRTESTCD, SROBJ, VISITNUM, SRTPTREF, SRTPTNUM sr.xpt SS Subject Status Findings One record per finding per"}
{"chunk_id": "p0019_c004", "page": 19, "text": "it per subject Tabulation STUDYID, USUBJID, SRTESTCD, SROBJ, VISITNUM, SRTPTREF, SRTPTNUM sr.xpt SS Subject Status Findings One record per finding per visit per subject Tabulation STUDYID, USUBJID, SSTESTCD, VISITNUM ss.xpt TR Tumor/Lesion Results Findings One record per tumor measurement/assessment per visit per subject per assessor Tabulation STUDYID, USUBJID, TRTESTCD, EVALID, VISITNUM tr.xpt TU Tumor/Lesion Identification Findings One record per identified tumor per subject per assessor Tabulation STUDYID, USUBJID, EVALID, LNKID tu.xpt UR Urinary System Findings Findings One record per finding per location per per visit per subject Tabulation STUDYID, USUBJID, VISITNUM, URTESTCD, URLOC, URLAT, URDIR ur.xpt VS Vital Signs Findings One record per vital sign measurement per time point per visit per subject Tabulation STUDYID, USUBJID, VSTESTCD, VISITNUM, VSTPTREF, VSTPTNUM vs.xpt TA Trial Arms Trial Design One record per planned Element per Arm Tabulation STUDYID, ARMCD, TAETORD ta.xp"}
{"chunk_id": "p0019_c005", "page": 19, "text": "TESTCD, VISITNUM, VSTPTREF, VSTPTNUM vs.xpt TA Trial Arms Trial Design One record per planned Element per Arm Tabulation STUDYID, ARMCD, TAETORD ta.xpt"}
{"chunk_id": "p0020_c000", "page": 20, "text": "CDISC Study Data Tabulation Model Implementation Guide: Human Clinical Trials (Version 3.3 Final) © 2018 Clinical Data Interchange Standards Consortium, Inc. All rights reserved Page 20 2018-11-20 Dataset Description Class Structure Purpose Keys Location TD Trial Disease Assessments Trial Design One record per planned constant assessment period Tabulation STUDYID, TDORDER td.xpt TE Trial Elements Trial Design One record per planned Element Tabulation STUDYID, ETCD te.xpt TI Trial Inclusion/Exclusion Criteria Trial Design One record per I/E crierion Tabulation STUDYID, IETESTCD ti.xpt TM Trial Disease Milestones Trial Design One record per Disease Milestone type Tabulation STUDYID, MIDSTYPE tm.xpt TS Trial Summary Information Trial Design One record per trial summary parameter value Tabulation STUDYID, TSPARMCD, TSSEQ ts.xpt TV Trial Visits Trial Design One record per planned Visit per Arm Tabulation STUDYID, ARM, VISIT tv.xpt RELREC Related Records Relationships One record per related "}
{"chunk_id": "p0020_c001", "page": 20, "text": "s Trial Design One record per planned Visit per Arm Tabulation STUDYID, ARM, VISIT tv.xpt RELREC Related Records Relationships One record per related record, group of records or dataset Tabulation STUDYID, RDOMAIN, USUBJID, IDVAR, IDVARVAL, RELID relrec.xpt RELSUB Related Subjects Relationships One record per relationship per related subject per subject Tabulation STUDYID, USUBJID, RSUBJID, SREL relsub.xpt SUPP-- Supplemental Qualifiers for [domain name] Relationships One record per IDVAR, IDVARVAL, and QNAM value per subject Tabulation STUDYID, RDOMAIN, USUBJID, IDVAR, IDVARVAL, QNAM supp-- .xpt OI Non-host Organism Identifiers Study Reference One record per taxon per non-host organism Tabulation NHOID, OISEQ oi.xpt Separate Supplemental Qualifier datasets of the form supp--.xpt are required. See Section 8.4, Relating Non- Standard Variables Values to a Parent Domain."}
{"chunk_id": "p0021_c000", "page": 21, "text": "CDISC Study Data Tabulation Model Implementation Guide: Human Clinical Trials (Version 3.3 Final) © 2018 Clinical Data Interchange Standards Consortium, Inc. All rights reserved Page 21 2018-11-20 3.2.1.1 Primary Keys The table in Section 3.2.1, Dataset-Level Metadata shows examples of what a sponsor might submit as variables that comprise the primary key for SDTM datasets. Since the purpose of this column is to aid reviewers in understanding the structure of a dataset, sponsors should list all of the natural keys (see definition below) for the dataset. These keys should define uniqueness for records within a dataset, and may define a record sort order. The identified keys for each dataset should be consistent with the description of the dataset structure as described in the Define -XML document. For all the general-observation-class domains (and for some special purpose domains), the --SEQ variable was created so that a unique record could be identified consistently across all of thes"}
{"chunk_id": "p0021_c001", "page": 21, "text": "ins (and for some special purpose domains), the --SEQ variable was created so that a unique record could be identified consistently across all of these domains via its use, along with STUDYID, USUBJID, DOMAIN. In most domains, --SEQ will be a surrogate key (see definition below) for a set of variables that comprise the natural key. In certain instances, a Supplement al Qualifier (SUPP--) variable might also contribute to the natural key of a record for a particular domain. See Section 4.1. 8.3, Assigning Natural Keys in the Metadata, for how this should be represented, and for additional information on keys. A natural key is a set of data (one or more columns of an entity) that uniquely identifies that entity and distinguishes it from any other row in the table. The advantage of natural keys is that they exist already; one does not need to introduce a new, \"unnatural\" value to the data schema. One of the difficulties in choosing a natural key is that just about any natural key one can "}
{"chunk_id": "p0021_c002", "page": 21, "text": "o introduce a new, \"unnatural\" value to the data schema. One of the difficulties in choosing a natural key is that just about any natural key one can think of has the potential to change. Because they have business meaning, natural keys are effectively coupled to the business, and they may need to be reworked when business requirements change. An example of such a change in clinical trials data would be the addition of a position or location that becomes a key in a new study, but that wasn't collected in previous studies. A surrogate key is a single-part, artificially established identifier for a record. Surrogate key assignment is a special case of derived data, one where a portion of the primary key is derived. A surrogate key is immune to changes in business needs. In addition, the key depends on only one field, so it's compact. A common way of deriving surrogate key values is to assign integer values sequentially. The --SEQ variable in the SDTM datasets is an example of a surrogate"}
{"chunk_id": "p0021_c003", "page": 21, "text": "on way of deriving surrogate key values is to assign integer values sequentially. The --SEQ variable in the SDTM datasets is an example of a surrogate key for most datasets; in some instances, however, --SEQ might be a part of a natural key as a replacement for what might have been a key (e.g., a repeat sequence number) in the sponsor's database. 3.2.1.2 CDISC Submission Value-Level Metadata In general, the SDTMIG v3.x Findings data models are closely related to normalized, relational data models in a vertical structure of one record per observation. Since the v3.x data structures are fixed, sometimes information that might have appeared as columns in a more horizontal (denormalized) structure in presentations and reports will instead be represented as rows in an SDTM Findings structure. Because many different types of observations are all presented in the same structure, there is a need to provide additional metadata to desc ribe the expected properties that differentiate, for example"}
{"chunk_id": "p0021_c004", "page": 21, "text": "l presented in the same structure, there is a need to provide additional metadata to desc ribe the expected properties that differentiate, for example, hematology lab results from serum chemistry lab results in terms of data type, standard units, and other attributes. For example, the Vital Signs data domain could contain subject records relate d to diastolic and systolic blood pressure, height, weight, and body mass index (BMI). These data are all submitted in the normalized SDTM Findings structure of one row per vital signs measurement. This means that there could be five records per subject (one for each test or measurement) for a single visit or time point, with the parameter names stored in the Test Code/Name variables, and the parameter values stored in result variables. Since the unique Test Code/Names could have different attributes (i.e., different origins, roles, and definitions) there would be a need to provide value -level metadata for this information. The value-level meta"}
{"chunk_id": "p0021_c005", "page": 21, "text": "es (i.e., different origins, roles, and definitions) there would be a need to provide value -level metadata for this information. The value-level metadata should be provided as a separate section of the Define-XML document. For details on the CDISC Define-XML standard, see https://www.cdisc.org/standards/transport/define -xml . 3.2.2 Conformance Conformance with the SDTMIG Domain Models is minimally indicated by: • Following the complete metadata structure for data domains • Following SDTMIG domain models wherever applicable • Using SDTM-specified standard domain names and prefixes where applicable • Using SDTM-specified standard variable names"}
{"chunk_id": "p0022_c000", "page": 22, "text": "CDISC Study Data Tabulation Model Implementation Guide: Human Clinical Trials (Version 3.3 Final) © 2018 Clinical Data Interchange Standards Consortium, Inc. All rights reserved Page 22 2018-11-20 • Using SDTM-specified data types for all variables • Following SDTM-specified controlled terminology and format guidelines for variables, when provided • Including all collected and relevant derived data in one of the standard domains, special purpose datasets, or general-observation-class structures • Including all Required and Expected variables as columns in standard domains, and ensuring that all Required variables are populated • Ensuring that each record in a dataset includes the appropriate Identifier and Timing variables, as well as a Topic variable • Conforming to all business rules described in the CDISC Notes column and general and domain- specific assumptions."}
{"chunk_id": "p0023_c000", "page": 23, "text": "CDISC Study Data Tabulation Model Implementation Guide: Human Clinical Trials (Version 3.3 Final) © 2018 Clinical Data Interchange Standards Consortium, Inc. All rights reserved Page 23 2018-11-20 4 Assumptions for Domain Models 4.1 General Domain Assumptions 4.1.1 Review Study Data Tabulation and Implementation Guide Review the Study Data Tabulation Model as well as this complete Implementation Guide before attempting to use any of the individual domain models. 4.1.2 Relationship to Analysis Datasets Specific guidance on preparing analysis datasets can be found in the CDISC Analysis Data Model (A DaM) Implementation Guide and other ADaM documents, available at http://www.cdisc.org/adam . 4.1.3 Additional Timing Variables Additional Timing variables can be added as needed to a standard domain model based on the thr ee general observation classes, except for the cases specified in Assumption 4.4.8, Date and Time Reported in a Domain Based on Findings. Timing variables can be added to sp"}
{"chunk_id": "p0023_c001", "page": 23, "text": "classes, except for the cases specified in Assumption 4.4.8, Date and Time Reported in a Domain Based on Findings. Timing variables can be added to special purpose domains only where specified in the SDTMIG domain model assumptions. Timing variables cannot be added to SUPPQUAL datasets or to RELREC (described in Section 8, Representing Relationships and Data). 4.1.3.1 EPOCH Variable Guidance When EPOCH is included in a Findings class domain, it should be based on the --DTC variable, since this is the date/time of the test or, for tests performed on specimens, the date/time of specimen collection. For observations in Interventions or Events class domains, EPOCH should be based on the --STDTC variable, since this is the start of the Intervention or Event. A possible, though unlikely, exception would be a finding based on an interval specimen collection that started in one epoch but ended in another. --ENDTC might be a more appropriate basis for EPOCH in such a case. Sponsors should not i"}
{"chunk_id": "p0023_c002", "page": 23, "text": "n collection that started in one epoch but ended in another. --ENDTC might be a more appropriate basis for EPOCH in such a case. Sponsors should not impute EPOCH values, but should, where possible, assign EPOCH values on the basis of CRF instructions and structure, even ifEPOCH was not directly collected and date/time data was n ot collected with sufficient precision to permit assignment of an observation to an EPOCH on the basis of date/time data alone. If it is not possible to determine theEPOCH of an observation, then EPOCH should be null. Methods for assigning EPOCH values can be described in the Define-XML document. Since EPOCH is a study-design construct, it is not applicable to Interventions or Events that started before the subject's participation in the study, nor to Findings performed before their participation in the study. For such records, EPOCH should be null. Note that a subject's participation in a study includes screening, which generally occurs before the reference st"}
{"chunk_id": "p0023_c003", "page": 23, "text": " such records, EPOCH should be null. Note that a subject's participation in a study includes screening, which generally occurs before the reference start date, RFSTDTC, in the DM domain. 4.1.4 Order of the Variables The order of variables in the Define-XML document must reflect the order of variables in the dataset. The order of variables in the CDISC domain models has been chosen to facilitate the review of the models and application of the models. Variables for the three general observation classes must be ordered with Identifiers first, followed by the Topic, Qualifier, and Timing variables. Within each role, variables must be ordered as shown in SDTM Tables 2.2.1, 2.2.2, 2.2.3, 2.2.3.1, 2.2.4, and 2.2.5. 4.1.5 SDTM Core Designations Three categories are specified in the \"Core\" column in the domain models:"}
{"chunk_id": "p0024_c000", "page": 24, "text": "CDISC Study Data Tabulation Model Implementation Guide: Human Clinical Trials (Version 3.3 Final) © 2018 Clinical Data Interchange Standards Consortium, Inc. All rights reserved Page 24 2018-11-20 • A Required variable is any variable that is basic to the identification of a data record (i.e., essential key variables and a topic variable) or is necessary to make the record meaningful. Required variables must always be included in the dataset and cannot be null for any record. • An Expected variable is any variable necessary to make a record useful in the context of a specific domain. Expected variables may contain some null values, but in most cases will not contain null values for every record. When the study does not include the data item for an expected variable, however, a null column must still be included in the dataset, and a comment must be included in the Define -XML document to state that the study does not include the data item. • A Permissible variable should be used in an "}
{"chunk_id": "p0024_c001", "page": 24, "text": "nt must be included in the Define -XML document to state that the study does not include the data item. • A Permissible variable should be used in an SDTM dataset wherever appropriate. Although domain specification tables list only some of the Identifier, Timing, and general observation class variables listed in the SDTM, all are permissible unless specifically restricted in this implementation guide (see Section 2.7, SDTM Variables Not Allowed in SDTMIG) or by specific domain assumptions. o Domain assumptions that say a Permissible variable is \"generally not used\" do not prohibit use of the variable. o If a study includes a data item that would be represented in a Permissible variable, then that variable must be included in the SDTM dataset, even if null. Indicate no data were availabl e for that variable in the Define-XML document. o If a study did not include a data item that would be represented in a Permissible variable, then that variable should not be included in the SDTM datase"}
{"chunk_id": "p0024_c002", "page": 24, "text": " a study did not include a data item that would be represented in a Permissible variable, then that variable should not be included in the SDTM dataset and should not be declared in the Define - XML document. 4.1.6 Additional Guidance on Dataset Naming SDTM datasets are normally named to be consistent with the domain code; for example, the Demographics dataset (DM) is named dm.xpt. (See the SDTM Domain Abbreviation codelist, C66734, in CDISC Controlled Terminology (https://www.cancer.gov/research/resources/terminology/cdisc ) for standard domain codes). Exceptions to this rule are described in Section 4.1.7, Splitting Domains , for general-observation-class datasets and in Section 8, Representing Relationships and Data, for the RELREC and SUPP-- datasets. In some cases, sponsors may need to define new custom domains and may be concerned that CDISC domain codes defined in the future will conflict with those they choose to use. To eliminate any risk of a sponsor using a name that CDISC l"}
{"chunk_id": "p0024_c003", "page": 24, "text": "hat CDISC domain codes defined in the future will conflict with those they choose to use. To eliminate any risk of a sponsor using a name that CDISC later determines to have a different meaning, domain codes beginning with t he letters X, Y, or Z have been reserved for the creation of custom domains. Any letter or number may be used in the second position. Note the use of codes beginning with X, Y, or Z is optional, and not required for custom domains. 4.1.7 Splitting Domains Sponsors may choose to split a domain of topically related information into physically separate datasets. • A domain based on a general observation class may be split according to values in --CAT. When a domain is split on --CAT, --CAT must not be null. • The Findings About (FA) domain (Section 6.4.4, Findings About ) may alternatively be split based on the domain of the value in --OBJ. For example, FACM would store Findings About CM records. See Section 6.4.2, Naming Findings About Domains, for more details. The "}
{"chunk_id": "p0024_c004", "page": 24, "text": " the value in --OBJ. For example, FACM would store Findings About CM records. See Section 6.4.2, Naming Findings About Domains, for more details. The following rules must be adhered to when splitting a domain into separate datasets to ensure they can be appended back into one domain dataset: 1. The value of DOMAIN must be consistent across the separate datasets as it would have been if they had not been split (e.g., QS, FA). 2. All variables that require a domain prefix (e.g., --TESTCD, --LOC) must use the value of DOMAIN as the prefix value (e.g., QS, FA). 3. --SEQ must be unique within USUBJID for all records across all the split datasets. If there are 1000 records for a USUBJID across the separate datasets, all 1000 records need unique values for -- SEQ."}
{"chunk_id": "p0025_c000", "page": 25, "text": "CDISC Study Data Tabulation Model Implementation Guide: Human Clinical Trials (Version 3.3 Final) © 2018 Clinical Data Interchange Standards Consortium, Inc. All rights reserved Page 25 2018-11-20 4. When relationship datasets (e.g., SUPPxx, FAxx, CO, RELREC) relate back to split parent domains, IDVAR would generally be --SEQ. When IDVAR is a value other than --SEQ (e.g., --GRPID, --REFID, -- SPID), care should be used to ensure that the parent records across the split datasets have unique values for the variable specified in IDVAR, so that related children records do not accidentally join back to incorrect parent records. 5. Permissible variables included in one split dataset need not be included in all split datasets. 6. For domains with two-letter domain codes (i.e., other than SUPP and RELREC), split dataset names can be up to four characters in length. For example, if splitting by --CAT, then dataset names would be the domain name plus up to two additional characters (e.g., QS36 f"}
{"chunk_id": "p0025_c001", "page": 25, "text": "aracters in length. For example, if splitting by --CAT, then dataset names would be the domain name plus up to two additional characters (e.g., QS36 for SF-36). If splitting Findings About by parent domain, then the dataset name would be the domain code, \"FA\", plus the two-character domain code for parent domain code (e.g., \"FACM\"). The four-character dataset-name limitation allows the use of a Supplemental Qualifier dataset associated with the split dataset. 7. Supplemental Qualifier datasets for split domains would also be split. The nomenclature would include the additional one-to-two characters used to identify the split dataset (e.g., SUPPQS36, SUPPFACM). The value of RDOMAIN in the SUPP-- datasets would be the two-character domain code (e.g., QS, FA). 8. In RELREC, if a dataset-level relationship is defined for a split Findings About domain, then RDOMAIN may contain the four-character dataset name, rather than the domain name \"FA\", as shown in the following example. relrec.xpt Ro"}
{"chunk_id": "p0025_c002", "page": 25, "text": "t domain, then RDOMAIN may contain the four-character dataset name, rather than the domain name \"FA\", as shown in the following example. relrec.xpt Row STUDYID RDOMAIN USUBJID IDVAR IDVARVAL RELTYPE RELID 1 ABC CM CMSPID ONE 1 2 ABC FACM FASPID MANY 1 9. See the SDTM Implementation Guide for Associated Persons for the naming of split associated persons datasets. 10. See the SDTM Define-XML specification for details regarding metadata representation when a domain is split into different datasets. Additional examples can be referenced in the Metadata Submission Guidelines (MSG) for SDTMIG. Note that submission of split SDTM domains may be subject to additional dataset splitting conventions as defined by regulators via technical specifications and/or as negotiated with regulatory reviewers."}
{"chunk_id": "p0026_c000", "page": 26, "text": "CDISC Study Data Tabulation Model Implementation Guide: Human Clinical Trials (Version 3.3 Final) © 2018 Clinical Data Interchange Standards Consortium, Inc. All rights reserved Page 26 2018-11-20 4.1.7.1 Trial Inclusion/Exclusion Criteria This example shows the QS domain data split into three datasets: Clinical Global Impression (QSCG), Cornell Scale for Depression in Dementia (QSCS) and Mini Mental State Examination (QSMM). Each dataset represents a subset of the QS domain data and has only one value of QSCAT. QS Domains Dataset for Clinical Global Impressions qscg.xpt Row STUDYID DOMAIN USUBJID QSSEQ QSSPID QSTESTCD QSTEST QSCAT QSORRES QSSTRESC QSSTRESN QSBLFL VISITNUM VISIT VISITDY QSDTC QSDY 1 CDISC01 QS CDISC01.100008 1 CGI-CGI-I CGIGLOB Global Improvement Clinical Global Impressions No change 4 4 3 WEEK 2 15 2003-05-13 15 2 CDISC01 QS CDISC01.100008 2 CGI-CGI-I CGIGLOB Global Improvement Clinical Global Impressions Much Improved 2 2 10 WEEK 24 169 2003-10-13 168 3 CDISC01 QS CD"}
{"chunk_id": "p0026_c001", "page": 26, "text": "1 QS CDISC01.100008 2 CGI-CGI-I CGIGLOB Global Improvement Clinical Global Impressions Much Improved 2 2 10 WEEK 24 169 2003-10-13 168 3 CDISC01 QS CDISC01.100014 1 CGI-CGI-I CGIGLOB Global Improvement Clinical Global Impressions Minimally Improved 3 3 3 WEEK 2 15 2003-10-31 17 4 CDISC01 QS CDISC01.100014 2 CGI-CGI-I CGIGLOB Global Improvement Clinical Global Impressions Minimally Improved 3 3 10 WEEK 24 169 2004-03-30 168 Dataset for Cornell Scale for Depression in Dementia qscs.xpt Row STUDYID DOMAIN USUBJID QSSEQ QSSPID QSTESTCD QSTEST QSCAT QSORRES QSSTRESC QSSTRESN QSBLFL VISITNUM VISIT VISITDY QSDTC QSDY 1 CDISC01 QS CDISC01.100008 3 CSDD-01 CSDD01 Anxiety Cornell Scale for Depression in Dementia Severe 2 2 1 SCREEN -13 2003-04-15 -14 2 CDISC01 QS CDISC01.100008 23 CSDD-01 CSDD01 Anxiety Cornell Scale for Depression in Dementia Severe 2 2 Y 2 BASELINE 1 2003-04-29 1 3 CDISC01 QS CDISC01.100014 3 CSDD-01 CSDD01 Anxiety Cornell Scale for Depression in Dementia Severe 2 2 1 SCREEN -"}
{"chunk_id": "p0026_c002", "page": 26, "text": "re 2 2 Y 2 BASELINE 1 2003-04-29 1 3 CDISC01 QS CDISC01.100014 3 CSDD-01 CSDD01 Anxiety Cornell Scale for Depression in Dementia Severe 2 2 1 SCREEN -13 2003-10-06 -9 4 CDISC01 QS CDISC01.100014 28 CSDD-06 CSDD06 Retardation Cornell Scale for Depression in Dementia Mild 1 1 Y 2 BASELINE 1 2003-10-15 1 Dataset for Mini Mental State Examination qsmm.xpt Row STUDYID DOMAIN USUBJID QSSEQ QSSPID QSTESTCD QSTEST QSCAT QSORRES QSSTRESC QSSTRESN QSBLFL VISITNUM VISIT VISITDY QSDTC QSDY 1 CDISC01 QS CDISC01.100008 81 MMSE-A.1 MMSEA1 Orientation Time Score Mini Mental State Examination 4 4 4 1 SCREEN -13 2003-04-15 -14 2 CDISC01 QS CDISC01.100008 88 MMSE-A.1 MMSEA1 Orientation Time Score Mini Mental State Examination 3 3 3 Y 2 BASELINE 1 2003-04-29 1 3 CDISC01 QS CDISC01.100014 81 MMSE-A.1 MMSEA1 Orientation Time score Mini Mental State Examination 2 2 2 1 SCREEN -13 2003-10-06 -9 4 CDISC01 QS CDISC01.100014 88 MMSE-A.1 MMSEA1 Orientation Time score Mini Mental State Examination 2 2 2 Y 2 BASELI"}
{"chunk_id": "p0026_c003", "page": 26, "text": " 2 2 2 1 SCREEN -13 2003-10-06 -9 4 CDISC01 QS CDISC01.100014 88 MMSE-A.1 MMSEA1 Orientation Time score Mini Mental State Examination 2 2 2 Y 2 BASELINE 1 2003-10-15 1 SUPPQS Domains Supplemental Qualifiers for QSCG suppqscg.xpt Row STUDYID RDOMAIN USUBJID IDVAR IDVARVAL QNAM QLABEL QVAL QORIG QEVAL 1 CDISC01 QS CDISC01.100008 QSCAT Clinical Global Impressions QSLANG Questionnaire Language GERMAN CRF 2 CDISC01 QS CDISC01.100014 QSCAT Clinical Global Impressions QSLANG Questionnaire Language FRENCH CRF"}
{"chunk_id": "p0027_c000", "page": 27, "text": "CDISC Study Data Tabulation Model Implementation Guide: Human Clinical Trials (Version 3.3 Final) © 2018 Clinical Data Interchange Standards Consortium, Inc. All rights reserved Page 27 2018-11-20 Supplemental Qualifiers for QSCS suppqscs.xpt Row STUDYID RDOMAIN USUBJID IDVAR IDVARVAL QNAM QLABEL QVAL QORIG QEVAL 1 CDISC01 QS CDISC01.100008 QSCAT Cornell Scale for Depression in Dementia QSLANG Questionnaire Language GERMAN CRF 2 CDISC01 QS CDISC01.100014 QSCAT Cornell Scale for Depression in Dementia QSLANG Questionnaire Language FRENCH CRF Supplemental Qualifiers for QSMM suppqsmm.xpt Row STUDYID RDOMAIN USUBJID IDVAR IDVARVAL QNAM QLABEL QVAL QORIG QEVAL 1 CDISC01 QS CDISC01.100008 QSCAT Mini Mental State Examination QSLANG Questionnaire Language GERMAN CRF 2 CDISC01 QS CDISC01.100014 QSCAT Mini Mental State Examination QSLANG Questionnaire Language FRENCH CRF 4.1.8 Origin Metadata 4.1.8.1 Origin Metadata for Variables The origin element in the Define-XML document file is used to ind"}
{"chunk_id": "p0027_c001", "page": 27, "text": "aire Language FRENCH CRF 4.1.8 Origin Metadata 4.1.8.1 Origin Metadata for Variables The origin element in the Define-XML document file is used to indicate where the data originated. Its purpose is to unambiguously communicate to the reviewer the origin of the data source. For example, data could be on the CRF (and thus should be traceable to an annotated CRF), deri ved (and thus traceable to some derivation algorithm), or assigned by some subjective process (and thus traceable to some external evaluator). The Define - XML specification is the definitive source of allowable origin values. Additional guidance and supporting examples can be referenced using the Metadata Submission Guidelines (M SG) for SDTMIG. 4.1.8.2 Origin Metadata for Records Sponsors are cautioned to recognize that a derived origin means that all values for that variable were derived, and that coll ected on the CRF applies to all values as well. In some cases, both collected and derived values may be reported in the "}
{"chunk_id": "p0027_c002", "page": 27, "text": "e were derived, and that coll ected on the CRF applies to all values as well. In some cases, both collected and derived values may be reported in the same field. For example, some records in a Findings dataset such as QS contain values collected from the CRF; other records may contain derived values, such as a total score. When both derived and collect ed values are reported in a variable, the origin is to be described using value-level metadata. 4.1.8.3 Assigning Natural Keys in the Metadata Section 3.2, Using the CDISC Domain Models in Regulatory Submissions — Dataset Metadata, indicates that a sponsor should include in the metadata the variables that contribute to the natural key for a domain. In a case where a dataset includes a mix of records with different natural keys, the natural key that provides the most granularity is the one that should be provided. The following examples are illustrations of how to do this, and include a case where a Supplemental Qualifier variable is refe"}
{"chunk_id": "p0027_c003", "page": 27, "text": "hat should be provided. The following examples are illustrations of how to do this, and include a case where a Supplemental Qualifier variable is referenced because it forms part of the natural key ."}
{"chunk_id": "p0028_c000", "page": 28, "text": "CDISC Study Data Tabulation Model Implementation Guide: Human Clinical Trials (Version 3.3 Final) © 2018 Clinical Data Interchange Standards Consortium, Inc. All rights reserved Page 28 2018-11-20 Musculoskeletal System Findings (MK) domain example: Sponsor A chooses the following natural key for the MK domain: STUDYID, USUBJID, VISTNUM, MKTESTCD Sponsor B collects data in such a way that the location (MKLOC and MKLAT) and method (MKMETHOD) variables need to be included in the natural key to identify a unique row. Sponsor B then defines the following natural key for the MK domain. STUDYID, USUBJID, VISITNUM, MKTESTCD, MKLOC, MKLAT, MKMETHOD In certain instances a Supplemental Qualifier variable (i.e., a QNAM value, see Section 8.4, Relating Non- Standard Variables Values to a Parent Domain) might also contribute to the natural key of a record, and therefore needs to be referenced as part of the natural key for a domain. The important concept here is t hat a domain is not limited by phy"}
{"chunk_id": "p0028_c001", "page": 28, "text": "cord, and therefore needs to be referenced as part of the natural key for a domain. The important concept here is t hat a domain is not limited by physical structure. A domain may be comprised of more than one physical dataset, for example the main domain dataset and its associated Supplemental Qualifiers dataset. Supplemental Qualifiers variables should be referenced i n the natural key by using a two-part name. The word QNAM must be used as the first part of the name to indicate that the contributing variable exists in a domain-specific SUPP-- and the second part is the value of QNAM that ultimately becomes a column reference (e.g., QNAM.XVAR when the SUPP-- record has a QNAM of \"XVAR\") when the SUPPQUAL records are joined on to the main domain dataset. Continuing with the MK domain example above: Sponsor B might have collected data that used different imaging methods, using imaging devices with different makes and models, and using different hand positions. The sponsor considers the"}
{"chunk_id": "p0028_c002", "page": 28, "text": "t used different imaging methods, using imaging devices with different makes and models, and using different hand positions. The sponsor considers the make and model information and hand position to be essential data that contributes to the uniqueness of the test result, and so includes a device identifier (SPDEVID) in the data and creates a Supplemental Qualifier variable for hand position (QNAM = \"MKHNDPOS\"). The natural key is then defined as follows: STUDYID, USUBJID, SPDEVID, VISITNUM, MKTESTCD, MKLOC, MKLAT, MKMETHOD, QNAM.MKHNDPOS Where the notation \"QNAM.MKHNDPOS\" means the Supplemental Qualifier whose QNAM is \"MKHNDPOS\". This approach becomes very useful in a Findings domain when --TESTCD values are \"generic\" and rely on other variables to completely describe the test. The use of generic test codes helps to create distinct lists of manageable controlled terminology for --TESTCD. In studies where multiple repetitive tests or measurements are being made, for example in a rheumat"}
{"chunk_id": "p0028_c003", "page": 28, "text": "of manageable controlled terminology for --TESTCD. In studies where multiple repetitive tests or measurements are being made, for example in a rheumatoid arthritis study where repetitive measurements of bone e rosion in the hands and wrists might be made using both X-ray and MRI equipment, the generic MKTEST \"Sharp/Genant Bone Erosion Score\" would be used in combination with other variables to fully identify the result. Taking just the phalanges, a sponsor might want to express the following in a test in order to make it unique: • Left or Right hand • Phalangeal joint position (which finger, which joint) • Rotation of the hand • Method of measurement (X-ray or MRI) • Machine make and model When CDISC controlled terminology for a test is not available, and a sponsor creates -- TEST and --TESTCD values, trying to encapsulate all information about a test within a unique value of a --TESTCD is not a recommended approach for the following reasons: • It results in the creation of a potential"}
{"chunk_id": "p0028_c004", "page": 28, "text": " about a test within a unique value of a --TESTCD is not a recommended approach for the following reasons: • It results in the creation of a potentially large number of test codes. • The eight-character values of --TESTCD become less intuitively meaningful. • Multiple test codes are essentially representing the same test or measurement simply to accommodate attributes of a test within the --TESTCD value itself (e.g., to represent a body location at which a measurement was taken)."}
{"chunk_id": "p0029_c000", "page": 29, "text": "CDISC Study Data Tabulation Model Implementation Guide: Human Clinical Trials (Version 3.3 Final) © 2018 Clinical Data Interchange Standards Consortium, Inc. All rights reserved Page 29 2018-11-20 As a result, the preferred approach would be to use a generic (or simple) test code that requires associated qualifier variables to fully express the test detail. This approach was used in creating the CDISC controlled terminology that would be used in the above example: The MKTESTCD value \"SGBESCR\" is a \"generic\" test code, and additional information about the test is provided by separate qualifier variables. The variables that completely specify a test may include domain variables and supplemental qualifier variables. Expressing the natural key becomes very important in this situation in order to communicate the variables that contribute to the uniqueness of a test. The following variables would be used to fully describe the test. The natural key for this domain includes both parent dataset"}
{"chunk_id": "p0029_c001", "page": 29, "text": "e uniqueness of a test. The following variables would be used to fully describe the test. The natural key for this domain includes both parent dataset variables and a supplemental qualifier variable that contribute to the natural key of each row and to describe the uniqueness of the test. SPDEVID MKTESTCD MKTEST MKLOC MKLAT MKMETHOD QNAM.MKHNDPOS ACME3000 SGBESCR Sharp/Genant Bone Erosion Score METACARPOPHALANGEAL JOINT 1 LEFT X-RAY PALM UP 4.2 General Variable Assumptions 4.2.1 Variable-Naming Conventions SDTM variables are named according to a set of conventions, using fragment names (listed in Appendix D, CDISC Variable-Naming Fragments). Variables with names ending in \"CD\" are \"short\" versions of associated variables that do not include the \"CD\" suffix (e.g., --TESTCD is the short version of --TEST). Values of --TESTCD must be limited to eight characters and cannot start with a number, nor can they contain characters other than letters, numbers, or underscores. This is to avoid pos"}
{"chunk_id": "p0029_c002", "page": 29, "text": " to eight characters and cannot start with a number, nor can they contain characters other than letters, numbers, or underscores. This is to avoid possible incompatibility with SAS v5 Transport files. This limitation will be in effect until the use of other formats (such as Dataset- XML) becomes acceptable to regulatory authorities. QNAM serves the same purpose as --TESTCD within supplemental qualifier d atasets, and so values of QNAM are subject to the same restrictions as values of --TESTCD. Values of other \"CD\" variables are not subject to the same restrictions as --TESTCD. • ETCD (the companion to ELEMENT) and TSPARMCD (the companion to TSPARM) are limit ed to eight characters and do not have the character restrictions that apply to --TESTCD. These values should be short for ease of use in programming, but it is not expected that they will need to serve as variable names. ARMCD is limited to 20 characters and does not have the character restrictions that apply to --TESTCD. The maxi"}
{"chunk_id": "p0029_c003", "page": 29, "text": " will need to serve as variable names. ARMCD is limited to 20 characters and does not have the character restrictions that apply to --TESTCD. The maximum length of ARMCD is longer than for other \"short\" variables to accommodate the kind of values that are likely to be needed for crossover trials. For example, if ARMCD values for a seven-period crossover were constructed using two-character abbreviations for each treatment and separating hyphens, the length of ARMCD values would be 20. This same rule applies to the ACTARMCD variable also. • Variable descriptive names (labels), up to 40 characters, should be provided as data variable labels for all variables, including Supplemental Qualifier variables. • Use of variable names (other than domain prefixes), formats, decodes, terminology, and data types for the same type of data (even for custom domains and Supplemental Qualifiers) should be consistent within and across studies within a submission. 4.2.2 Two-Character Domain Identifier In o"}
{"chunk_id": "p0029_c004", "page": 29, "text": "om domains and Supplemental Qualifiers) should be consistent within and across studies within a submission. 4.2.2 Two-Character Domain Identifier In order to minimize the risk of difficulty when merging/joining domains for reporting purposes, the two- character Domain Identifier is used as a prefix in most variable names. Variables in domain specification tables (see Section 5, Models for Special Purpose Domains , Section 6, Domain Models Based on the General Observation Classes, Section 7, Trial Design Model Datasets, Section 8, Representing Relationships and Data, and Section 9, Study References) already specify the complete variable names. When adding variables from the SDTM to standard domains or creating custom domains based on the General Observation Classes, sponsors must replace the -- (two hyphens) prefix in the SDTM tables of General Observation Class,"}
{"chunk_id": "p0030_c000", "page": 30, "text": "CDISC Study Data Tabulation Model Implementation Guide: Human Clinical Trials (Version 3.3 Final) © 2018 Clinical Data Interchange Standards Consortium, Inc. All rights reserved Page 30 2018-11-20 Timing, and Identifier variables with the two-character Domain Identifier (DOMAIN) value for that domain/dataset. The two-character domain code is limited to A-Z for the first character, and A-Z, 0-9 for the second character. No other characters are allowed. This is for compatibility with SAS version 5 Transport files and with file naming for the Electronic Common Technical Document (eCTD). The following variables are exceptions to the philosophy that all variable names are prefixed with the Domain Identifier: • Required Identifiers (STUDYID, DOMAIN, USUBJID) • Commonly used grouping and merge Keys (e.g., VISIT, VISITNUM, VISITDY) • All Demographics domain (DM) variables other than DMDTC and DMDY • All variables in RELREC and SUPPQUAL, and some variables in Comments and Trial Design datasets."}
{"chunk_id": "p0030_c001", "page": 30, "text": "hics domain (DM) variables other than DMDTC and DMDY • All variables in RELREC and SUPPQUAL, and some variables in Comments and Trial Design datasets. Required Identifiers are not prefixed because they are usually used as keys when merging/joining observations. The --SEQ and the optional Identifiers --GRPID and --REFID are prefixed because they may be used as keys when relating observations across domains. 4.2.3 Use of “Subject” and USUBJID \"Subject\" is used to generically refer to both \"patients\" and \"healthy volunteers\" in order to be consistent with the recommendation in FDA guidance. The term \"Subject\" should be used consistently in all labels and Define -XML document comments. To identify a subject uniquely across all studies for all applications or submissions involving the product, a unique identifier (USUBJID) should be assigned and included in all datasets. The unique subject identifier (USUBJID) is required in all datasets containing subject -level data. USUBJID values must b"}
{"chunk_id": "p0030_c002", "page": 30, "text": "nd included in all datasets. The unique subject identifier (USUBJID) is required in all datasets containing subject -level data. USUBJID values must be unique for each trial participant (subject) across all trials in the submission. This mea ns that no two (or more) subjects, across all trials in the submission, may have the same USUBJID. Additionally, the same person who participates in multiple clinical trials (when this is known) must be assigned the same USUBJID value in all trials. The below dm.xpt sample rows illustrate a single subject who participates in two studies, first in ACME01 and later in ACME14. Note that this is only one example of the possible values for USUBJID. CDISC does not recommend any specific format for the values of USUBJID, only that the values need to be unique for all subjects in the submission, and across multiple submissions for the same compound. Many sponsors concatenate values for the Study, Site and Subject into USUBJID, but this is not a requirement"}
{"chunk_id": "p0030_c003", "page": 30, "text": "ltiple submissions for the same compound. Many sponsors concatenate values for the Study, Site and Subject into USUBJID, but this is not a requirement. It is acceptable to use any format for USUBJID, as long as the values are unique across all subjects per FDA guidance. Study ACME01 dm.xpt dm.xpt Row STUDYID DOMAIN USUBJID SUBJID SITEID INVNAM 1 ACME01 DM ACME01-05-001 001 05 John Doe Study ACME14 dm.xpt dm.xpt Row STUDYID DOMAIN USUBJID SUBJID SITEID INVNAM 1 ACME14 DM ACME01-05-001 017 14 Mary Smith 4.2.4 Text Case in Submitted Data It is recommended that text data be submitted in upper case text. Exceptions may include long text data (such as comment text) and values of --TEST in Findings datasets (which may be more readable in title case if used as labels in transposed views). Values from CDISC controlled terminology or external code systems (e.g., MedDRA) or response values for QRS instruments specified by the instrument documentation should be in the case specified by those sourc"}
{"chunk_id": "p0030_c004", "page": 30, "text": "systems (e.g., MedDRA) or response values for QRS instruments specified by the instrument documentation should be in the case specified by those sources, which may be mixed case. The case used in the text data must match the case used in the Controlled Terminology provided in the Define-XML document."}
{"chunk_id": "p0031_c000", "page": 31, "text": "CDISC Study Data Tabulation Model Implementation Guide: Human Clinical Trials (Version 3.3 Final) © 2018 Clinical Data Interchange Standards Consortium, Inc. All rights reserved Page 31 2018-11-20 4.2.5 Convention for Missing Values Missing values for individual data items should be represented by nulls. Conventions for representing observations not done, using the SDTM --STAT and --REASND variables, are addressed in Section 4.5.1.2, Tests Not Done and the individual domain models. 4.2.6 Grouping Variables and Categorization Grouping variables are Identifiers and Qualifiers variables, such as the --CAT (Category) and --SCAT (Subcategory), that group records in the SDTM domains/datasets and can be assigned by sponsors to categorize topic-variable values. For example, a lab record with LBTEST = \"SODIUM\" might have LBCAT = \"CHEMISTRY\" and LBSCAT = \"ELECTROLYTES\". Values for --CAT and --SCAT should not be redundant with the domain name or dictionary classification provided by --DECOD and -"}
{"chunk_id": "p0031_c001", "page": 31, "text": "SCAT = \"ELECTROLYTES\". Values for --CAT and --SCAT should not be redundant with the domain name or dictionary classification provided by --DECOD and --BODSYS. 1. Hierarchy of Grouping Variables STUDYID DOMAIN --CAT --SCAT USUBJID --GRPID --LNKID --LNKGRP 2. How Grouping Variables Group Data A. For the subject 1. All records with the same USUBJID value are a group of records that describe that subject. B. Across subjects (records with different USUBJID values) 1. All records with the same STUDYID value are a group of records that describe that study. 2. All records with the same DOMAIN value are a group of records that describe that domain. 3. --CAT (Category) and --SCAT (Sub-category) values further subset groups within the domain. Generally, - -CAT/--SCAT values have meaning within a particular domain. However, it is possible to use the same values for --CAT/--SCAT in related domains (e.g., MH and AE). When values are used across domains, the meanings should be the same. Examples of w"}
{"chunk_id": "p0031_c002", "page": 31, "text": "same values for --CAT/--SCAT in related domains (e.g., MH and AE). When values are used across domains, the meanings should be the same. Examples of where --CAT/--SCAT may have meaning across domains/datasets: a. Cases where different domains in the same general observation class contain similar concep tual information. Adverse Events (AE), Medical History (MH), and Clinical Events (CE), for example, are conceptually the same data, the only differences being when the event started relative to the study start and whether the event is considered a regulatory reportable adverse event in the study. Neurotoxicities collected in Oncology trials both as separate Medical History CRFs (MH domain) and Adverse Event CRFs (AE domain) could both identify/collect \"Paresthesia of the left Arm\". In both domains, the -- CAT variable could have the value of NEUROTOXICITY. b. Cases where multiple datasets are necessary to capture data about the same topic. As an example, perhaps the existence and start a"}
{"chunk_id": "p0031_c003", "page": 31, "text": "f NEUROTOXICITY. b. Cases where multiple datasets are necessary to capture data about the same topic. As an example, perhaps the existence and start and stop date of \"Paresthesia of the left Arm\" is reported as an Adverse Event (AE domain), but the severity of the event is captured at multiple visits and recorded as Findings About (FA dataset). In both cases the --CAT variable could have a value of NEUROTOXICITY. c. Cases where multiple domains are necessary to capture data that was collected together and have an implicit relationship, perhaps identified in the Related Records (RELREC) special purpose dataset. Stress Test data collection, for example, may capture the following: 1. Information about the occurrence, start, stop, and duration of the test (in the PR domain) 2. Vital Signs recorded during the stress test (VS domain)"}
{"chunk_id": "p0032_c000", "page": 32, "text": "CDISC Study Data Tabulation Model Implementation Guide: Human Clinical Trials (Version 3.3 Final) © 2018 Clinical Data Interchange Standards Consortium, Inc. All rights reserved Page 32 2018-11-20 3. Treatments (e.g., oxygen) administered during the stress test (in an Interventions domain) In such cases, the data collected during the stress tests recorded in three separate domains may all have --CAT/--SCAT values (STRESS TEST) that identify that this data was collected during the stress test. C. Within subjects (records with the same USUBJID values) 1. --GRPID values further group (subset) records within USUBJID. All records in the same domain with the same --GRPID value are a group of records within USUBJID. Unlike --CAT and --SCAT, --GRPID values are not intended to have any meaning across subjects and are usually assigned during or after data collection. D. Although --SPID and --REFID are Identifier variables, they may sometimes be used as grouping variables and may also have meanin"}
{"chunk_id": "p0032_c001", "page": 32, "text": "er data collection. D. Although --SPID and --REFID are Identifier variables, they may sometimes be used as grouping variables and may also have meaning across domains. E. --LNKID and --LNKGRP express values that are used to link records in separate domains. As such, these variables are often used in IDVAR in a RELREC relationship when there is a dataset-to-dataset relationship. 1. --LNKID is a grouping identifier used to identify a record in one domain that is related to records in another domain, often forming a one-to-many relationship. 2. --LNKGRP is a grouping identifier used to identify a group of records in one domain that is related to a record in another domain, often forming a many-to-one relationship. 3. Differences between Grouping Variables The primary distinctions between --CAT/--SCAT and --GRPID are: • --CAT/--SCAT are known (identified) about the data before it is collected. • --CAT/--SCAT values group data across subjects. • --CAT/--SCAT may have some controlled termino"}
{"chunk_id": "p0032_c002", "page": 32, "text": " (identified) about the data before it is collected. • --CAT/--SCAT values group data across subjects. • --CAT/--SCAT may have some controlled terminology. • --GRPID is usually assigned during or after data collection at the discretion of the sponsor. • --GRPID groups data only within a subject. • --GRPID values are sponsor-defined, and will not be subject to controlled terminology. Therefore, data that would be the same across subjects is usually more appropriate in --CAT/--SCAT, and data that would vary across subjects is usually more appropriate in --GRPID. For example, a Concomitant Medication administered as part of a known combination therapy for all subjects (\"Mayo Clinic Regimen\", for example) would more appropriately use --CAT/--SCAT to identify the medication as part of that regimen. Groups of medications recorded on an SAE form as treatments for the SAE would more appropriately use --GRPID because the groupings are likely to differ across subjects. In domains based on the Fi"}
{"chunk_id": "p0032_c003", "page": 32, "text": " as treatments for the SAE would more appropriately use --GRPID because the groupings are likely to differ across subjects. In domains based on the Findings general observation class, the --RESCAT variable can be used to categorize results after the fact. --CAT and --SCAT by contrast, are generally pre-defined by the sponsor or used by the investigator at the point of collection, not after assessing the value of Findings results. 4.2.7 Submitting Free Text from the CRF Sponsors often collect free text data on a CRF to supplement a standard field. This often occurs as part of a list of choices accompanied by \"Other, specify.\" The manner in which these data are submitted will vary based on their role. The handling of verbatim text values for the ---OBJ variable is discussed in Section 6.4.3 Variables Unique to Findings About. 4.2.7.1 \"Specify\" Values for Non-Result Qualifier Variables When free-text information is collected to supplement a standard non-result Qualifier field, the free-te"}
{"chunk_id": "p0032_c004", "page": 32, "text": "fy\" Values for Non-Result Qualifier Variables When free-text information is collected to supplement a standard non-result Qualifier field, the free-text value should be placed in the SUPP-- dataset described in Section 8.4, Relating Non-Standard Variables Values to a Parent Domain. When applicable, controlled terminology should be used for SUPP-- field names (QNAM) and their associated labels (QLABEL) (see Section 8.4, Relating Non-Standard Variables Values to a Parent Domain and Appendix C2, Supplemental Qualifiers Name Codes)."}
{"chunk_id": "p0033_c000", "page": 33, "text": "CDISC Study Data Tabulation Model Implementation Guide: Human Clinical Trials (Version 3.3 Final) © 2018 Clinical Data Interchange Standards Consortium, Inc. All rights reserved Page 33 2018-11-20 For example, when a description of \"Other Medically Important Serious Adverse Event\" category is collected on a CRF, the free text description should be stored in the SUPPAE dataset. • AESMIE = \"Y\" • SUPPAE QNAM = \"AESOSP\", QLABEL = \"Other Medically Important SAE\", QVAL = \"HIGH RISK FOR ADDITIONAL THROMBOSIS\" Another example is a CRF that collects reason for dose adjustment with additional free -text description: The free text description should be stored in the SUPPEX dataset. • EXADJ = \"NONMEDICAL REASON\" • SUPPEX QNAM = \"EXADJDSC\", QLABEL = \"Reason For Dose Adjustment Description\", QVAL = \"PATIENT MISUNDERSTOOD INSTRUCTIONS\" When the CRF includes a list of values for a qualifier field that includes \"Other\" and the \"Other\" is supplemented with a \"Specify\" free text field, then the manner in"}
{"chunk_id": "p0033_c001", "page": 33, "text": "udes a list of values for a qualifier field that includes \"Other\" and the \"Other\" is supplemented with a \"Specify\" free text field, then the manner in which the free text \"Specify\" value is submitted will vary based on the sponsor's coding practice and analysis requirements. For example, consider a CRF that collects the indication for an analgesic concomitant medication (CMINDC) using a list of pre-specified values and an \"Other, specify\" field: An investigator has selected \"OTHER\" and specified \"Broken arm\". Several options are available for submission of this data: 1) If the sponsor wishes to maintain controlled terminology for the CMINDC field and limit the terminology to the five pre-specified choices, then the free text is placed in SUPPCM. CMINDC OTHER QNAM QLABEL QVAL CMINDOTH Other Indication BROKEN ARM 2) If the sponsor wishes to maintain controlled terminology for CMINDC but will expand the terminology based on values seen in the specify field, then the value of CMINDC will r"}
{"chunk_id": "p0033_c002", "page": 33, "text": " maintain controlled terminology for CMINDC but will expand the terminology based on values seen in the specify field, then the value of CMINDC will reflect the sponsor's coding decision and SUPPCM could be used to store the verbatim text. Note that QNAM references the \"parent\" variable name with the addition of \"DSC\". Likewise, the label is a modification of the parent variable label."}
{"chunk_id": "p0034_c000", "page": 34, "text": "CDISC Study Data Tabulation Model Implementation Guide: Human Clinical Trials (Version 3.3 Final) © 2018 Clinical Data Interchange Standards Consortium, Inc. All rights reserved Page 34 2018-11-20 CMINDC FRACTURE QNAM QLABEL QVAL CMINDOTH Other Indication BROKEN ARM Note that the sponsor might choose a different value for CMINDC (e.g., \"BONE FRACTURE\") depending on the sponsor's coding practice and analysis requirements. 3) If the sponsor does not require that controlled terminology be maintained and wishes for all responses to be stored in a single variable, then CMINDC will be used and SUPPCM is not required. CMINDC BROKEN ARM 4.2.7.2 \"Specify\" Values for Result Qualifier Variables When the CRF includes a list of values for a result field that includes \"Other\" and the \"Other\" is supplemented with a \"Specify\" free text field, then the manner in which the free text \"Specify\" value is submitted will vary based on the sponsor's coding practice and analysis requirements. For example, cons"}
{"chunk_id": "p0034_c001", "page": 34, "text": "nner in which the free text \"Specify\" value is submitted will vary based on the sponsor's coding practice and analysis requirements. For example, consider a CRF where the sponsor requests the subject's eye color: An investigator has selected \"OTHER\" and specified \"BLUEISH GRAY\". As in the above discussion for non- result Qualifier values, the sponsor has several options for submission: 1) If the sponsor wishes to maintain controlled terminology in the standard result field and limit the terminology to the five pre-specified choices, then the free text is placed in --ORRES and the controlled terminology in --STRESC. SCTEST SCORRES SCSTRESC Eye Color BLUEISH GRAY OTHER 2) If the sponsor wishes to maintain controlled terminology in the standard result field, but will expand the terminology based on values seen in the specify field, then the free text is placed in --ORRES and the value of --STRESC will reflect the sponsor's coding decision. SCTEST SCORRES SCSTRESC Eye Color BLUEISH GRAY GR"}
{"chunk_id": "p0034_c002", "page": 34, "text": "free text is placed in --ORRES and the value of --STRESC will reflect the sponsor's coding decision. SCTEST SCORRES SCSTRESC Eye Color BLUEISH GRAY GRAY 3) If the sponsor does not require that controlled terminology be maintained, the verbatim value will be copied to --STRESC. SCTEST SCORRES SCSTRESC Eye Color BLUEISH GRAY BLUEISH GRAY 4.2.7.3 \"Specify\" Values for Topic Variables Interventions: If a list of specific treatments is provided along with \"Other, Specify\", --TRT should be populated with the name of the treatment found in the specified text. If the sponsor wishes to distinguish between the pre - specified list of treatments and those recorded under \"Other, Specify,\" the --PRESP variable could be used. For example:"}
{"chunk_id": "p0035_c000", "page": 35, "text": "CDISC Study Data Tabulation Model Implementation Guide: Human Clinical Trials (Version 3.3 Final) © 2018 Clinical Data Interchange Standards Consortium, Inc. All rights reserved Page 35 2018-11-20 If ibuprofen and diclofenac were reported, the CM dataset would include the following: CMTRT CMPRESP IBUPROFEN Y DICLOFENAC Events: \"Other, Specify\" for Events may be handled similarly to Interventions. --TERM should be populated with the description of the event found in the specified text and --PRESP could be used to distinguish between prespecified and free text responses. Findings: \"Other, Specify\" for tests may be handled similarly to Interventions. --TESTCD and --TEST should be populated with the code and description of the test found in the specified text. If specific tests are not prespecified on the CRF and the investigator has the option of writing in tests, then the name of the test would have to be coded to ensure that all --TESTCD and --TEST values are consistent with the test co"}
{"chunk_id": "p0035_c001", "page": 35, "text": "on of writing in tests, then the name of the test would have to be coded to ensure that all --TESTCD and --TEST values are consistent with the test controlled terminology. For example, a lab CRF collected values for Hemoglobin, Hematocrit and \"Other, specify\". The value the investigator wrote for \"Other, specify\" was \"Prothrombin time\" with an associated result and units. The sponsor would submit the controlled terminology for this test, i.e., LBTESTCD would be \"PT\" and LBTEST would be \"Prothrombin Time\", rather than the verbatim term, \"Prothrombin time\" supplied by the investigator. 4.2.8 Multiple Values for a Variable 4.2.8.1 Multiple Values for an Intervention or Event Topic Variable If multiple values are reported for a topic variable (i.e., --TRT in an Interventions general-observation-class dataset or --TERM in an Events general-observation-class dataset), it is expected that the sponsor will split the values into multiple records or otherwise resolve the multiplicity per the spo"}
{"chunk_id": "p0035_c002", "page": 35, "text": "ervation-class dataset), it is expected that the sponsor will split the values into multiple records or otherwise resolve the multiplicity per the sponsor's standard data management procedures. For example, if an adverse event term of \"Headache and Nausea\" or a concomitant medication of \"Tylenol and Benadryl\" is reported, sponsors will often split the original report into separate records and/or query the site for clarification. By the time of submission, the datasets should be in conformance with the record structures described in the SDTMIG. Note that the Disposition dataset (DS) is an exception to the general rule of splitting multiple topic values into separate records. For DS, one record for each disposition or protocol milestone is permitted according to the domain structure. For cases of multiple reasons for discontinuation see Section 6.2.3, Disposition , Assumption 5 for additional information. 4.2.8.2 Multiple Values for a Findings Result Variable If multiple result values (-"}
{"chunk_id": "p0035_c003", "page": 35, "text": "tion 6.2.3, Disposition , Assumption 5 for additional information. 4.2.8.2 Multiple Values for a Findings Result Variable If multiple result values (--ORRES) are reported for a test in a Findings class dataset, multiple records should be submitted for that --TESTCD. For example, • EGTESTCD = \"SPRTARRY\", EGTEST = \"Supraventricular Tachyarrhythmias\", EGORRES = \"ATRIAL FIBRILLATION\" • EGTESTCD = \"SPRTARRY\", EGTEST = \"Supraventricular Tachyarrhythmias\", EGORRES = \"ATRIAL FLUTTER\" When a finding can have multiple results, the key structure for the findings dataset must be adequate to distinguish between the multiple results. See Section 4.1.8.3, Assigning Natural Keys in the Metadata ."}
{"chunk_id": "p0036_c000", "page": 36, "text": "CDISC Study Data Tabulation Model Implementation Guide: Human Clinical Trials (Version 3.3 Final) © 2018 Clinical Data Interchange Standards Consortium, Inc. All rights reserved Page 36 2018-11-20 4.2.8.3 Multiple Values for a Non-Result Qualifier Variable The SDTM permits one value for each Qualifier variable per record. If multiple values exist (e.g., due to a \"Check all that apply\" instruction on a CRF), then the value for the Qualifier variable should be \"MULTIPLE\" and SUPP -- should be used to store the individual responses. It is recommended that the SUPP -- QNAM value reference the corresponding standard domain variable with an appended number or letter. In some cases, the standard variable name will be shortened to meet the 8-character variable name requirement, or it may be clearer to append a meaningful character string as shown in the second AE example below, where the first three characters of the drug name are appended. Likewise the QLABEL value should be similar to the st"}
{"chunk_id": "p0036_c001", "page": 36, "text": " in the second AE example below, where the first three characters of the drug name are appended. Likewise the QLABEL value should be similar to the standard label. The values st ored in QVAL should be consistent with the controlled terminology associated with the standard variable. See Section 8.4, Relating Non-Standard Variables Values to a Parent Domain for additional guidance on maintaining appropriately unique QNAM values. The following example includes selected variables from the ae.xpt and suppae.xpt datasets for a rash whose locations are the face, neck, and chest. AE Dataset AETERM AELOC RASH MULTIPLE SUPPAE Dataset QNAM QLABEL QVAL AELOC1 Location of the Reaction 1 FACE AELOC2 Location of the Reaction 2 NECK AELOC3 Location of the Reaction 3 CHEST In some cases, values for QNAM and QLABEL more specific than those above may be needed. For example, a sponsor might conduct a study with two study drugs (e.g., open- label study of Abcicin + Xyzamin), and may require the investigato"}
{"chunk_id": "p0036_c002", "page": 36, "text": "ded. For example, a sponsor might conduct a study with two study drugs (e.g., open- label study of Abcicin + Xyzamin), and may require the investigator assess causality and describe action taken for each drug for the rash: AE Dataset AETERM AEREL AEACN RASH MULTIPLE MULTIPLE SUPPAE Dataset QNAM QLABEL QVAL AERELABC Causality of Abcicin POSSIBLY RELATED AERELXYZ Causality of Xyzamin UNLIKELY RELATED AEACNABC Action Taken with Abcicin DOSE REDUCED AEACNXYZ Action Taken with Xyzamin DOSE NOT CHANGED In each of the above examples, the use of SUPPAE should be documented in the Define-XML document and the annotated CRF. The controlled terminology used should be documented as part of value -level metadata. If the sponsor has clearly documented that one response is of primary interest (e.g., in the CRF, protocol, or analysis plan), the standard domain variable may be populated with the primary response and SUPP -- may be used to store the secondary response(s). For example, if Abcicin is desig"}
{"chunk_id": "p0036_c003", "page": 36, "text": "omain variable may be populated with the primary response and SUPP -- may be used to store the secondary response(s). For example, if Abcicin is designated as the primary study drug in the example above: AE Dataset AETERM AEREL AEACN RASH POSSIBLY RELATED DOSE REDUCED SUPPAE Dataset QNAM QLABEL QVAL AERELX Causality of Xyzamin UNLIKELY RELATED AEACNX Action Taken with Xyzamin DOSE NOT CHANGED Note that in the latter case, the label for standard variables AEREL and AEACN will have no indication that they pertain to Abcicin. This association must be clearly documented in the metadata and annotated CRF."}
{"chunk_id": "p0037_c000", "page": 37, "text": "CDISC Study Data Tabulation Model Implementation Guide: Human Clinical Trials (Version 3.3 Final) © 2018 Clinical Data Interchange Standards Consortium, Inc. All rights reserved Page 37 2018-11-20 4.2.9 Variable Lengths Very large transport files have become an issue for FDA to process. One of the main contributors to the large file sizes has been sponsors using the maximum length of 200 for character variables. To help rectify this situation: • The maximum SAS Version 5 character variable length of 200 characters should not be used unless necessary. • Sponsors should consider the nature of the data and apply reasonable, appropriate lengths to variables. For example: o The length of flags will always be 1. o --TESTCD and IDVAR will never be more than 8, so the length can always be set to 8. o The length for variables that use controlled terminology can be set to the length of the longest term. 4.3 Coding and Controlled Terminology Assumptions 4.3.1 Types of Controlled Terminology As of"}
{"chunk_id": "p0037_c001", "page": 37, "text": "erminology can be set to the length of the longest term. 4.3 Coding and Controlled Terminology Assumptions 4.3.1 Types of Controlled Terminology As of SDTMIG v3.3, controlled terminology is represented one of the following ways: • A single asterisk, \"*\", when CDISC controlled terminology is not available at the current time, but the SDS Team expects that sponsors may have their own controlled terminology and/or the CDISC Controlled Terminology Team may develop controlled terminology in the future. • The single applicable value for the variable DOMAIN, e.g., \"PR\". • The name of a CDISC codelist, represented as a hyperlink in parentheses, e.g., \"(NY)\". • A short reference to an external terminology, such as \"MedDRA\" or \"ISO 3166 Alpha -3\". In addition, the \"Controlled Terms, Codelist or Format\" column has been used to indicate variables that use an ISO 8601 format. 4.3.2 Controlled Terminology Text Case Terms from controlled terminology should be in the case that appears the source codel"}
{"chunk_id": "p0037_c002", "page": 37, "text": "t use an ISO 8601 format. 4.3.2 Controlled Terminology Text Case Terms from controlled terminology should be in the case that appears the source codelist or code system (e.g., CDISC codelist or external code system such as MedDRA). See Section 4.2.4 Text Case in Sub mitted Data . 4.3.3 Controlled Terminology Values The controlled terminology or a reference to the controlled terminology should be included in the Define -XML document file wherever applicable. All values in the permissible value set for the study should be included, whether they are represented in the submitted data or not. Note that a null value should not be included in the permissible value set. A null value is implied for any list of controlled terms unless the variable is \"Required\" (see Section 4.1.5, SDTM Core Designations ). When a domain or datasetspecification includes a codelist for a variable, not every value in that codelist may have been part of planned data collection; only values that were part of planned "}
{"chunk_id": "p0037_c003", "page": 37, "text": "udes a codelist for a variable, not every value in that codelist may have been part of planned data collection; only values that were part of planned data collection should be included in the Define-XML document. For example, --PRESP variables are associated with the NY codelist, but only the value \"Y\" is allowed in --PRESP variables. Future versions of the Define-XML Specification are expected to include information on representing subsets of controlled terminology. Examples provided in the column \"CDISC Notes\" are only examples and not intended to imply controlled terminology. Check current controlled terminology at this link: http://www.cancer.gov/cancertopics/cancerlibrary/terminologyresources/cdisc"}
{"chunk_id": "p0038_c000", "page": 38, "text": "CDISC Study Data Tabulation Model Implementation Guide: Human Clinical Trials (Version 3.3 Final) © 2018 Clinical Data Interchange Standards Consortium, Inc. All rights reserved Page 38 2018-11-20 4.3.4 Use of Controlled Terminology and Arbitrary Number Codes Controlled terminology or human-readable text should be used instead of arbitrary number codes in order to reduce ambiguity for submission reviewers. For example, CMDECOD would contain human-readable dictionary text rather than a numeric code. Numeric code values may be submitted as Supplemental Qualifiers if necessary. 4.3.5 Storing Controlled Terminology for Synonym Qualifier Variables • For events such as AEs and Medical History, populate --DECOD with the dictionary's preferred term and populate --BODSYS with the preferred body system name. If a dictionary is multi-axial, the value in -- BODSYS should represent the system organ class (SOC) used for the sponsor's analysis and summary tables, which may not necessarily be the prim"}
{"chunk_id": "p0038_c001", "page": 38, "text": "e in -- BODSYS should represent the system organ class (SOC) used for the sponsor's analysis and summary tables, which may not necessarily be the primary SOC. Populate --SOC with the dictionary-derived primary SOC. In cases where the primary SOC was used for analysis, --BODSYS and --SOC are the same. • If the MedDRA dictionary was used to code events, the intermediate levels in the MedDRA hierarchy should also be represented in the dataset. A pair of variables has been defined for each of the levels of the hierarchy other than SOC and PT: one to represent the text description and the other to represent the code value associated with it. For example, --LLT should be used to represent the Lowest Level Term text description and --LLTCD should be used to represent the Lowest Level Term code value. • For concomitant medications, populate CMDECOD with the drug's generic name and populate CMCLAS with the drug class used for the sponsor's analysis and summary tables. If coding to multiple clas"}
{"chunk_id": "p0038_c002", "page": 38, "text": "OD with the drug's generic name and populate CMCLAS with the drug class used for the sponsor's analysis and summary tables. If coding to multiple classes, follow Section 4.2.8.1, Multiple Values for an Intervention or Event Topic Variable , or omit CMCLAS. • For concomitant medications, supplemental qualifiers may be used to represent additional coding dictionary information, e.g., a drug's ATC codes from the WHO Drug dictionary (see Section 8.4, Relating Non-Standard Variables Values to a Parent Domain for more information). 4.3.6 Storing Topic Variables for General Domain Models The topic variable for the Interventions and Events general-observation-class models is often stored as verbatim text. For an Events domain, the topic variable is --TERM. For an Interventions domain, the topic variable is --TRT. For a Findings domain, the topic variable, --TESTCD, should use Controlled Terminology (e.g., \"SYSBP\" for Systolic Blood Pressure). If CDISC standard controlled terminology exists, it"}
{"chunk_id": "p0038_c003", "page": 38, "text": "variable, --TESTCD, should use Controlled Terminology (e.g., \"SYSBP\" for Systolic Blood Pressure). If CDISC standard controlled terminology exists, it should be used; other wise, sponsors should define their own controlled list of terms. If the verbatim topic variable in an Interventions or Event domain is modified to facilitate coding, the modified text is stored in --MODIFY. In most cases (other than PE), the dictionary- coded text is derived into --DECOD. Since the PEORRES variable is modified instead of the topic variable for PE, the dictionary-derived text would be placed in PESTRESC. The variables used in each of the defined domains are: Domain Original Verbatim Modified Verbatim Standardized Value AE AETERM AEMODIFY AEDECOD DS DSTERM DSDECOD CM CMTRT CMMODIFY CMDECOD MH MHTERM MHMODIFY MHDECOD PE PEORRES PEMODIFY PESTRESC 4.3.7 Use of \"Yes\" and \"No\" Values Variables where the response is \"Yes\" or \"No\" (\"Y\" or \"N\") should normally be populated for both \"Y\" and \"N\" responses. This"}
{"chunk_id": "p0038_c004", "page": 38, "text": " of \"Yes\" and \"No\" Values Variables where the response is \"Yes\" or \"No\" (\"Y\" or \"N\") should normally be populated for both \"Y\" and \"N\" responses. This eliminates confusion regarding whether a blank response indicates \"N\" or is a missing value. However, some variables are collected or derived in a manner that allows only one response, such as when a single check box indicates \"Yes\". In situations such as these, where it is unambiguous to populate only the response of interest, it is permissible to populate only one value (\"Y\" or \"N\") and leave the alternate value blank. An example of when it would be acceptable to use only a value of \"Y\" would be for Last Observation Before Exposure Flag The sponsor is expected to provide the dictionary name and version used to map the terms by utilizing the Define-XML external codelist attributes."}
{"chunk_id": "p0039_c000", "page": 39, "text": "CDISC Study Data Tabulation Model Implementation Guide: Human Clinical Trials (Version 3.3 Final) © 2018 Clinical Data Interchange Standards Consortium, Inc. All rights reserved Page 39 2018-11-20 (--LOBXFL) variables, where \"N\" is not necessary to indicate that a value is not the last observation before exposure. 4.4 Actual and Relative Time Assumptions Timing variables (SDTM Table 2.2.5) are an essential component of all SDTM subject -level domain datasets. In general, all domains based on the three general observation classes should have at least on e Timing variable. In the Events or Interventions general observation class, this could be the start date of the event or intervention. In the Findings observation class, where data are usually collected at multiple visits, at least one Timing variable mus t be used. The SDTMIG requires dates and times of day to be stored according to the international standard ISO 8601 (http://www.iso.org). ISO 8601 provides a text-based representation "}
{"chunk_id": "p0039_c001", "page": 39, "text": "es and times of day to be stored according to the international standard ISO 8601 (http://www.iso.org). ISO 8601 provides a text-based representation of dates and/or times, intervals of time, and durations of time. 4.4.1 Formats for Date/Time Variables An SDTM DTC variable may include data that is represented in ISO 8601 format as a complete date/time, a partial date/time, or an incomplete date/time. The SDTMIG template uses ISO 8601 for calendar dates and times of day, which are expressed as follows: • YYYY-MM-DDThh:mm:ss(.n+)?(((+|-)hh:mm)|Z)? where: • [YYYY] = four-digit year • [MM] = two-digit representation of the month (01-12, 01=January, etc.) • [DD] = two-digit day of the month (01 through 31) • [T] = (time designator) indicates time information follows • [hh] = two digits of hour (00 through 23) (am/pm is NOT allowed) • [mm] = two digits of minute (00 through 59) • [ss] = two digits of second (00 through 59) The last two components, indicated in the format pattern with a quest"}
{"chunk_id": "p0039_c002", "page": 39, "text": "o digits of minute (00 through 59) • [ss] = two digits of second (00 through 59) The last two components, indicated in the format pattern with a question mark, are optional: • [(.n+)?] = optional fractions of seconds • [(((+|-)hh:mm)|Z)?] = optional time zone Other characters defined for use within the ISO 8601 standard are: • [-] (hyphen): to separate the time Elements \"year\" from \"month\" and \"month\" from \"day\" and to represent missing date components. • [:] (colon): to separate the time Elements \"hour\" from \"minute\" and \"minute\" from \"second\" • [/] (solidus): to separate components in the representation of date/time interval s • [P] (duration designator): precedes the components that represent the duration Note: Permissible values for variables with controlled terms of \"Y\" or \"N\" may be extended to include \"U\" or \"NA\" if it is the sponsor's practice to explicitly collect or derive values indicating \"Unknown\" or \"Not Applicable\" for that variable. Spaces are not allowed in any ISO 860"}
{"chunk_id": "p0039_c003", "page": 39, "text": "or's practice to explicitly collect or derive values indicating \"Unknown\" or \"Not Applicable\" for that variable. Spaces are not allowed in any ISO 8601 representations"}
{"chunk_id": "p0040_c000", "page": 40, "text": "CDISC Study Data Tabulation Model Implementation Guide: Human Clinical Trials (Version 3.3 Final) © 2018 Clinical Data Interchange Standards Consortium, Inc. All rights reserved Page 40 2018-11-20 Key aspects of the ISO 8601 standard are as follows: • ISO 8601 represents dates as a text string using the notation YYYY-MM-DD. • ISO 8601 represents times as a text string using the notation hh:mm:ss(.n+)?(((+| -)hh:mm)|Z)?. • The SDTM and SDTMIG require use of the ISO 8601 Extended format, which requires hyphen delimiters for date components and colon delimiters for time components. The ISO 8601 basic format, which does not require delimiters, should not be used in SDTM datasets. • When a date is stored with a time in the same variable (as a date/time), the date is written in front of the time and the time is preceded with \"T\" using the notation YYYY-MM-DDThh:mm:ss (e.g. 2001-12-26T00:00:01). Implementation of the ISO 8601 standard means that date/time variables are character/text data typ"}
{"chunk_id": "p0040_c001", "page": 40, "text": "ion YYYY-MM-DDThh:mm:ss (e.g. 2001-12-26T00:00:01). Implementation of the ISO 8601 standard means that date/time variables are character/text data types. The SDTM fragment employed for date/time character variables is DTC. 4.4.2 Date/Time Precision The concept of representing date/time precision is handled through use of the ISO 8601 standard. According to ISO 8601, precision (also referred to by ISO 8601 as \"completeness\" or \"representations with reduced accuracy\") can be inferred from the presence or absence of components in the date and/or time values. Missing components are represented by right truncation or a hyphen (for intermediate components that are missing). If the date and time values are completely missing, the SDTM date field should be null. Every component except year is represented as two digits. Years are represented as four digits; for all other components, one -digit numbers are always padded with a leading zero. The table below provides examples of ISO 8601 represent"}
{"chunk_id": "p0040_c002", "page": 40, "text": "ur digits; for all other components, one -digit numbers are always padded with a leading zero. The table below provides examples of ISO 8601 representations of complete and truncated date/time values using ISO 8601 \"appropriate right truncations\" of incomplete date/time representations. Note that if no time component is represented, the [T] time designator (in addition to the missing time) must be omitted in ISO 8601 representation. Date and Time as Originally Recorded Precision ISO 8601 Date/Time 1 December 15, 2003 13:14:17.123 Date/time, including fractional seconds 2003-12-15T13:14:17.123 2 December 15, 2003 13:14:17 Date/time to the nearest second 2003-12-15T13:14:17 3 December 15, 2003 13:14 Unknown seconds 2003-12-15T13:14 4 December 15, 2003 13 Unknown minutes and seconds 2003-12-15T13 5 December 15, 2003 Unknown time 2003-12-15 6 December, 2003 Unknown day and time 2003-12 7 2003 Unknown month, day, and time 2003 This date and date/time model also provides for imprecise or est"}
{"chunk_id": "p0040_c003", "page": 40, "text": " December, 2003 Unknown day and time 2003-12 7 2003 Unknown month, day, and time 2003 This date and date/time model also provides for imprecise or estimated dates, such as those commonly seen in Medical History. To represent these intervals while applying the ISO 8601 standard, it is recommended that the sponsor concatenate the date/time values (using the most complete representation of the date/time known) that describe the beginning and the end of the interval of uncertainty and separate them with a solidus as shown in the table below: Interval of Uncertainty ISO 8601 Date/Time 1 Between 10:00 and 10:30 on the morning of December 15, 2003 2003-12-15T10:00/2003-12-15T10:30 2 Between the first of this year (2003) until \"now\" (February 15, 2003) 2003-01-01/2003-02-15 3 Between the first and the tenth of December, 2003 2003-12-01/2003-12-10 4 Sometime in the first half of 2003 2003-01-01/2003-06-30 Other uncertainty intervals may be represented by the omission of components of the date w"}
{"chunk_id": "p0040_c004", "page": 40, "text": " 4 Sometime in the first half of 2003 2003-01-01/2003-06-30 Other uncertainty intervals may be represented by the omission of components of the date when these components are unknown or missing. As mentioned above, ISO 8601 represents missing intermediate components through the use of a hyphen where the missing component would normally be represented. This may be used in addition to \"appropriate right truncations\" for incomplete date/time representations. When components are omitted, the expected delimiters must still be kept in place and only a single hyphen is to be used to indicate an omitted component. Examples of this method of omitted component representation are shown in the table below:"}
{"chunk_id": "p0041_c000", "page": 41, "text": "CDISC Study Data Tabulation Model Implementation Guide: Human Clinical Trials (Version 3.3 Final) © 2018 Clinical Data Interchange Standards Consortium, Inc. All rights reserved Page 41 2018-11-20 Date and Time as Originally Recorded Level of Uncertainty ISO 8601 Dat/Time 1 December 15, 2003 13:15:17 Date/time to the nearest second 2003-12-15T13:15:17 2 December 15, 2003 ??:15 Unknown hour with known minutes 2003-12-15T-:15 3 December 15, 2003 13:??:17 Unknown minutes with known date, hours, and seconds 2003-12-15T13:-:17 4 The 15th of some month in 2003, time not collected Unknown month and time with known year and day 2003---15 5 December 15, but can't remember the year, time not collected Unknown year with known month and day --12-15 6 7:15 of some unknown date Unknown date with known hour and minute -----T07:15 Note that Row 6 above, where a time is reported with no date information, represents a very unusual situation. Since most data is collected as part of a visit, when only a t"}
{"chunk_id": "p0041_c001", "page": 41, "text": "where a time is reported with no date information, represents a very unusual situation. Since most data is collected as part of a visit, when only a time appears on a CRF, it is expected that the date of the visit would usually be used as the date of collection. Using a character-based data type to implement the ISO 8601 date/time standard will ensure that the date/time information will be machine and human readable without the need for further manipulation, and will be platform and software independent. 4.4.3 Intervals of Time and Use of Duration for --DUR Variables 4.4.3.1 Intervals of Time and Use of Duration As defined by ISO 8601, an interval of time is the part of a time axis, limited by two time \"instants\" such as the times represented in SDTM by the variables --STDTC and --ENDTC. These variables represent the two instants that bound an interval of time, while the duration is the quantity of time that is equal to the difference between these time points. ISO 8601 allows an inter"}
{"chunk_id": "p0041_c002", "page": 41, "text": "nd an interval of time, while the duration is the quantity of time that is equal to the difference between these time points. ISO 8601 allows an interval to be represented in multiple ways. One representation, shown below, uses two dates in the format: YYYY-MM-DDThh:mm:ss/YYYY-MM-DDThh:mm:ss While the above would represent the interval (by providing the start date/time and end date/time to bound the interval of time), it does not provide the value of the duration (the quantity of time). Duration is frequently used during a review; however, the duration timing variable ( --DUR) should generally be used in a domain if it was collected in lieu of a start date/time (--STDTC) and end date/time (--ENDTC). If both -- STDTC and --ENDTC are collected, durations can be calculated by the difference in these two values, and need not be in the submission dataset. Both duration and duration units can be provided in the single --DUR variable, in accordance with the ISO 8601 standard. The values provi"}
{"chunk_id": "p0041_c003", "page": 41, "text": "ion dataset. Both duration and duration units can be provided in the single --DUR variable, in accordance with the ISO 8601 standard. The values provided in --DUR should follow one of the following ISO 8601 duration formats: PnYnMnDTnHnMnS - or - PnW where: • [P] (duration designator): precedes the alphanumeric text string that represents the duration. Note that the use of the character P is based on the historical use of the term \"period\" for duration. • [n] represents a positive number or zero • [W] is used as week designator, preceding a data Element that represents the number of calendar weeks within the calendar year (e.g., P6W represents 6 weeks of calendar time). The letter \"P\" must precede other values in the ISO 8601 representation of duration. The \"n\" preceding each letter represents the number of Years, Months, Days, Hours, Minutes, Seconds, or the number of Weeks. As with the date/time format, \"T\" is used to separate the date components from time components."}
{"chunk_id": "p0042_c000", "page": 42, "text": "CDISC Study Data Tabulation Model Implementation Guide: Human Clinical Trials (Version 3.3 Final) © 2018 Clinical Data Interchange Standards Consortium, Inc. All rights reserved Page 42 2018-11-20 Note that weeks cannot be mixed with any other date/time components such as days or months in duration expressions. As is the case with the date/time representation in --DTC, --STDTC, or --ENDTC, only the components of duration that are known or collected need to be represented. Also, as is the case with the date/time representation, if no time component is represented, the [T] time designator (in addition to the missing time) must be omitted in ISO 8601 representation. ISO 8601 also allows that the \"lowest-order components\" of duration being represented may be represented in decimal format. This may be useful if data are collected in formats such as \"one and one -half years\", \"two and one- half weeks\", \"one-half a week\" or \"one quarter of an hour\" and the sponsor wishes to represent this \"pr"}
{"chunk_id": "p0042_c001", "page": 42, "text": "ch as \"one and one -half years\", \"two and one- half weeks\", \"one-half a week\" or \"one quarter of an hour\" and the sponsor wishes to represent this \"precision\" (or lack of precision) in ISO 8601 representation. Remember that this is ONLY allowed in the lowest -order (right-most) component in any duration representation. The table below provides some examples of ISO-8601-compliant representations of durations: Duration as originally recorded ISO 8601 Duration 2 Years P2Y 10 weeks P10W 3 Months 14 days P3M14D 3 Days P3D 6 Months 17 Days 3 Hours P6M17DT3H 14 Days 7 Hours 57 Minutes P14DT7H57M 42 Minutes 18 Seconds PT42M18S One-half hour PT0.5H 5 Days 12¼ Hours P5DT12.25H 4 ½ Weeks P4.5W Note that a leading zero is required with decimal values less than one. 4.4.3.2 Interval with Uncertainty When an interval of time is an amount of time (duration) following an event whose start date/time is recorded (with some level of precision, i.e. when one knows the start date/time and the duration foll"}
{"chunk_id": "p0042_c002", "page": 42, "text": "ion) following an event whose start date/time is recorded (with some level of precision, i.e. when one knows the start date/time and the duration following the start date/time), the correct ISO 8601 usage to represent this interval is as follows: YYYY-MM-DDThh:mm:ss/PnYnMnDTnHnMnS where the start date/time is represented before the solidus [/], the \"Pn…\" following the solidus represents a \"duration\", and the entire representation is known as an \"interval\". Note that this is the recommended representation of elapsed time, given a start date/time and the duration elapsed. When an interval of time is an amount of time (duration) measured prior to an event whose start date/time is recorded (with some level of precision, i.e., where one knows the end date/time and the duration preceding that end date/time), the syntax is: PnYnMnDTnHnMnS/YYYY-MM-DDThh:mm:ss where the duration, \"Pn…\", is represented before the solidus [/], the end date/time is represented following the solidus, and the entire"}
{"chunk_id": "p0042_c003", "page": 42, "text": "M-DDThh:mm:ss where the duration, \"Pn…\", is represented before the solidus [/], the end date/time is represented following the solidus, and the entire representation is known as an \"interval\". 4.4.4 Use of the \"Study Day\" Variables The permissible Study Day variables (--DY, --STDY, and --ENDY) describe the relative day of the observation starting with the reference date as Day 1. They are determined by comparing the date portion of the respective date/time variables (--DTC, --STDTC, and --ENDTC) to the date portion of the Subject Reference Start Date (RFSTDTC from the Demographics domain). The Subject Reference Start Date (RFSTDTC) is designated as Study Day 1. T he Study Day value is incremented by 1 for each date following RFSTDTC. Dates prior to RFSTDTC are decreased by 1, with the date preceding RFSTDTC designated as Study Day -1 (there is no Study Day 0). This algorithm for determining Study Day is"}
{"chunk_id": "p0043_c000", "page": 43, "text": "CDISC Study Data Tabulation Model Implementation Guide: Human Clinical Trials (Version 3.3 Final) © 2018 Clinical Data Interchange Standards Consortium, Inc. All rights reserved Page 43 2018-11-20 consistent with how people typically describe sequential days relative to a fixed reference point, but creates problems if used for mathematical calculations because it does not allow for a Day 0. As such, Study Day is not suited for use in subsequent numerical computations, such as calculating duration. The raw date values should be used rather than Study Day in those calculations. All Study Day values are integers. Thus, to calculate Study Day: --DY = (date portion of --DTC) - (date portion of RFSTDTC) + 1 if --DTC is on or after RFSTDTC --DY = (date portion of --DTC) - (date portion of RFSTDTC) if --DTC precedes RFSTDTC This algorithm should be used across all domains. 4.4.5 Clinical Encounters and Visits All domains based on the three general observation classes should have at least one t"}
{"chunk_id": "p0043_c001", "page": 43, "text": "be used across all domains. 4.4.5 Clinical Encounters and Visits All domains based on the three general observation classes should have at least one timing variable. For domains in the Events or Interventions observation classes, and for domains in the Findings observation class, for which data are collected only once during the study, the most appropriate timing variable may be a dat e (e.g., --DTC, --STDTC) or some other timing variable. For studies that are designed with a prospectively defined schedule of visit -based activities, domains for data that are to be collected more than once per subject (e.g., Labs, ECG, Vital Signs) are expected to include VISITNUM as a timing variable. Clinical encounters are described by the CDISC Visit variables. For planned visits, values of VISIT, VISITNUM, and VISITDY must be those defined in the Trial Visits (TV) dataset (Section 7.3.1, Trial Visits ). For planned visits: • Values of VISITNUM are used for sorting and should, wherever possible, ma"}
{"chunk_id": "p0043_c002", "page": 43, "text": "al Visits (TV) dataset (Section 7.3.1, Trial Visits ). For planned visits: • Values of VISITNUM are used for sorting and should, wherever possible, match the planned chronological order of visits. Occasionally, a protocol will define a planned visit whose timing is unpredictable (e.g., one planned in response to an adverse event, a threshold test value, or a disease event), and completely chronological values of VISITNUM may not be possible in such a case. • There should be a one-to-one relationship between values of VISIT and VISITNUM. • For visits that may last more than one calendar day, VISITDY should be the planned day of the start of the visit. Sponsor practices for populating visit variables for unplanned visits may vary across sponsors. • VISITNUM should generally be populated, even for unplanned visits, as it is expected in many Findings domains, as described above. The easiest method of populating VISITNUM for unplanned visits is to assign the same value (e.g., 99) to all unp"}
{"chunk_id": "p0043_c003", "page": 43, "text": "Findings domains, as described above. The easiest method of populating VISITNUM for unplanned visits is to assign the same value (e.g., 99) to all unplanned visits, but this method provides no differentiation between the unplanned visits and does not provide chronological sorting. Methods that provide a one -to-one relationship between visits and values of VISITNUM, that are consistent across domains, and that assign VISITNUM values that sort chronologically require more work and must be applied after all of a subject's unplanned visits are known. • VISIT may be left null or may be populated with a generic value (e.g., \"Unscheduled\") for all unplanned visits, or individual values may be assigned to different unplanned visits. • VISITDY must not be populated for unplanned visits, since VISITDY is, by definition, the planned study day of visit, and since the actual study day of an unplanned visit belongs in a --DY variable. The following table shows an example of how the visit identifier"}
{"chunk_id": "p0043_c004", "page": 43, "text": "sit, and since the actual study day of an unplanned visit belongs in a --DY variable. The following table shows an example of how the visit identifiers might be used for lab data: USUBJID VISIT VISITNUM VISITDY LBDY 001 Week 1 2 7 7 001 Week 2 3 14 13 001 Week 2 Unscheduled 3.1 17 4.4.6 Representing Additional Study Days The SDTM allows to represent study days relative to the RFSTDTC reference start date variable in the DM dataset, using variables --DY, as described above in Section 4.4.4, Use of the \"Study Day\" Variables . The calculation of additional study days within subdivisions of time in a clinical trial may be based on one or more sponsor -defined reference dates not represented by RFSTDTC. In such cases, the sponsor may define Supplemental Qualifier variables and the Define-XML document should reflect the reference dates used to calculate such study days. If the"}
{"chunk_id": "p0044_c000", "page": 44, "text": "CDISC Study Data Tabulation Model Implementation Guide: Human Clinical Trials (Version 3.3 Final) © 2018 Clinical Data Interchange Standards Consortium, Inc. All rights reserved Page 44 2018-11-20 sponsor wishes to define \"day within element\" or \"day within epoch\", the reference date/time will be an element start date/time in the Subject Elements (SE) dataset (Section 5.3, Subject Elements). 4.4.7 Use of Relative Timing Variables --STRF and --ENRF The variables --STRF and --ENRF represent the timing of an observation relative to the sponsor -defined Study Reference Period, when information such as \"BEFORE\", \"PRIOR\", \"ONGOING\"', or \"CONTINUING\" is collected in lieu of a date and this collected information is in relation to the sponsor -defined Study Reference Period. The sponsor-defined Study Reference Period is the continuous period of time defined by the discrete starting point, RFSTDTC, and the discrete ending point, RFENDTC, for each subject in the Demographics dataset. --STRF is us"}
{"chunk_id": "p0044_c001", "page": 44, "text": "me defined by the discrete starting point, RFSTDTC, and the discrete ending point, RFENDTC, for each subject in the Demographics dataset. --STRF is used to identify the start of an observation relative to the sponsor -defined Study Reference Period. --ENRF is used to identify the end of an observation relative to the sponsor -defined Study Reference Period. Allowable values for --STRF are \"BEFORE\", \"DURING\", \"DURING/AFTER\", \"AFTER\", and \"U\" (for unknown). Although \"COINCIDENT\" and \"ONGOING\" are in the STENRF codelist, they describe timing relative to a point in time rather than an interval of time, so are not appropriate for use with --STRF variables. It would be unusual for an event or intervention to be recorded as starting \"AFTER\" the Study Reference Period, b ut could be possible, depending on how the Study Reference Period is defined in a particular study. Allowable values for --ENRF are \"BEFORE\", \"DURING\", \"DURING/AFTER\", \"AFTER\" and \"U\" (for unknown). If --ENRF is used, then --E"}
{"chunk_id": "p0044_c002", "page": 44, "text": " in a particular study. Allowable values for --ENRF are \"BEFORE\", \"DURING\", \"DURING/AFTER\", \"AFTER\" and \"U\" (for unknown). If --ENRF is used, then --ENRF = \"AFTER\" means that the event did not end before or during the Study Reference Period. Although \"COINCIDENT\" and \"ONGOING\" are in the STENRF codelist, they describe timing relative to a point in time rather than an interval of time, so are not appropriate for use with --ENRF varia bles. As an example, a CRF checkbox that identifies concomitant medication use that began prior to the Study Reference Period would translate into CMSTRF = \"BEFORE\", if selected. Note that in this example, the information collected is with respect to the start of the concomitant medication use only, and therefore the collected data corresponds to variable CMSTRF, not CMENRF. Note also that the information collected is relative to the Study Reference Period, which meets the definition of CMSTRF. Some sponsors may wish to derive --STRF and --ENRF for analysis"}
{"chunk_id": "p0044_c003", "page": 44, "text": "ected is relative to the Study Reference Period, which meets the definition of CMSTRF. Some sponsors may wish to derive --STRF and --ENRF for analysis or reporting purposes even when dates are collected. Sponsors are cautioned that doing so in conjunction with directly collecting or mapping data such as \"BEFORE\", \"PRIOR\", \"ONGOING\", etc., to --STRF and --ENRF will blur the distinction between collected and derived values within the domain. Sponsors wishing to do such derivations are instead encouraged to use analysis datasets for this derived data. In general, sponsors are cautioned that representing information using variables --STRF and --ENRF may not be as precise as other methods, particularly because information is often collected relative to a point in time or to a period of time other than the one defined as the Study Reference Period. SDTMIG v3.1. 2 attempted to address these limitations by the addition of four new relative timing variables, which are described in the following"}
{"chunk_id": "p0044_c004", "page": 44, "text": "iod. SDTMIG v3.1. 2 attempted to address these limitations by the addition of four new relative timing variables, which are described in the following paragraph. Sponsors should use the set of variables that allows for accurate representation of the collected data. In many cases, this will mean using these new relative timing variables in place of --STRF and --ENRF. --STRTPT, --STTPT, --ENRTPT, and --ENTPT While the variables --STRF and --ENRF are useful in the case when relative timing assessments are made coincident with the start and end of the Study Reference Period, these may not be suitable for expressing relative timing assessments such as \"Prior\" or \"Ongoing\" that are collected at other times of the study. As a result, four new timing variables were added in v3.1.2 to express a similar concept at any point in time. The variables --STRTPT and -- ENRTPT contain values similar to --STRF and --ENRF, but may be anchored with any timing description or date/time value expressed in the"}
{"chunk_id": "p0044_c005", "page": 44, "text": "-STRTPT and -- ENRTPT contain values similar to --STRF and --ENRF, but may be anchored with any timing description or date/time value expressed in the respective --STTPT and --ENTPT variables, and are not limited to the Study Reference Period. Unlike the variables --STRF and --ENRF, which for all domains are defined relative to one Study Reference Period, the timing variables --STRTPT, --STTPT, --ENRTPT, and --ENTPT are defined by each sponsor for each study. Allowable values for --STRTPT and --ENRTPT are as follows: If the reference time point corresponds to the date of collection or assessment: • Start values: An observation can start BEFORE that time point, can start COINCIDENT with that time po int, or it is unknown (U) when it started."}
{"chunk_id": "p0045_c000", "page": 45, "text": "CDISC Study Data Tabulation Model Implementation Guide: Human Clinical Trials (Version 3.3 Final) © 2018 Clinical Data Interchange Standards Consortium, Inc. All rights reserved Page 45 2018-11-20 • End values: An observation can end BEFORE that time point, can end COINCIDENT with that time point, can be known that it didn't end but was ONGOING, or it is unknown (U) when it ended or if it was ongoing. • AFTER is not a valid value in this case because it would represent an event after the date of collection. If the reference time point is prior to the date of collection or assessment: • Start values: An observation can start BEFORE the reference point, can start COINCIDENT with the reference point, can start AFTER the reference point, or it may not be known (U) when it started. • End values: An observation can end BEFORE the reference point, can end COINCIDENT with the reference point, can end AFTER the reference point, can be known that it didn't end but was ONGOING, or it is unknown ("}
{"chunk_id": "p0045_c001", "page": 45, "text": "t, can end COINCIDENT with the reference point, can end AFTER the reference point, can be known that it didn't end but was ONGOING, or it is unknown (U) when it ended or if it was ongoing. Although \"DURING\" and \"DURING/AFTER\" are in the STENRF codelist, they describe timing relative to an interval of time rather than a point in time, so are not allowable for use with --STRTPT and --ENRTPT variables. Examples of --STRTPT, --STTPT, --ENRTPT, and --ENTPT Example 1: Medical History Assumptions: • CRF contains \"Year Started\" and check box for \"Active\" • \"Date of Assessment\" is collected Example when \"Active\" is checked: • MHDTC = date of assessment value, e.g., \"2006-11-02\" • MHSTDTC = year of condition start, e.g., \"2002\" • MHENRTPT = \"ONGOING\" • MHENTPT = date of assessment value, e.g., \"2006-11-02\" • Figure 4.4.7: Example of --ENRTPT and --ENTPT for Medical History"}
{"chunk_id": "p0046_c000", "page": 46, "text": "CDISC Study Data Tabulation Model Implementation Guide: Human Clinical Trials (Version 3.3 Final) © 2018 Clinical Data Interchange Standards Consortium, Inc. All rights reserved Page 46 2018-11-20 Example 2: Prior and Concomitant Medications Assumptions: • CRF includes collection of \"Start Date\" and \"Stop Date\", and check boxes for o \"Prior\" if start date was before the screening visit and was unknown or uncollected o \"Continuing\" if medication had not stopped as of the final study visit, so no end date was collected Example when both \"Prior\" and \"Continuing\" are checked: • CMSTDTC is null • CMENDTC is null • CMSTRTPT = \"BEFORE\" • CMSTTPT is screening date, e.g., \"2006-10-21\" • CMENRTPT = \"ONGOING\" • CMENTPT is final study visit date, e.g., \"2006-11-02\" Example 3: Adverse Events Assumptions: • CRF contains \"Start Date\", \"Stop Date\" • Collection of \"Outcome\" includes check boxes for \"Continuing\" and \"Unknown\", to be used, if necessary, at the end of the subject's participation in the tr"}
{"chunk_id": "p0046_c001", "page": 46, "text": "ection of \"Outcome\" includes check boxes for \"Continuing\" and \"Unknown\", to be used, if necessary, at the end of the subject's participation in the trial • No assessment date or visit information was collected Example when \"Unknown\" is checked: • AESTDTC is start date, e.g., \"2006-10-01\" • AEENDTC is null • AEENRTPT = \"U\" • AEENTPT is final subject contact date, e.g., \"2006-11-02\" 4.4.8 Date and Time Reported in a Domain Based on Findings When the date/time of collection is reported in any domain, the date/time should go into the --DTC field (e.g., EGDTC for Date/Time of ECG). For any domain based on the Findings genera l observation class, such as lab tests which are based on a specimen, the collection date is likely to be tied to when the specimen or source of the finding was captured, not necessarily when the data were recorded. In order to ensure that the critical tim ing information is always represented in the same variable, the --DTC variable is used to represent the time of spe"}
{"chunk_id": "p0046_c002", "page": 46, "text": "er to ensure that the critical tim ing information is always represented in the same variable, the --DTC variable is used to represent the time of specimen collection. For example, in the LB domain the LBDTC variable would be used for all single-point blood collections or spot urine collections. For timed lab collections (e.g., 24-hour urine collections) the LBDTC variable would be used for the start date/time of the collection and LBENDTC for the end date/time of the collection. This approach will allow the single-point and interval collections to use the same date/time variables consistently across all datasets for the Findings general observation class. The table below illustrates the proper use of these variables. Note that --STDTC is not used for collection dates over an interval in the Findings general observation class and is therefore blank in the following table. Collection Type --DTC --STDTC --ENDTC Single-Point Collection X Interval Collection X X"}
{"chunk_id": "p0047_c000", "page": 47, "text": "CDISC Study Data Tabulation Model Implementation Guide: Human Clinical Trials (Version 3.3 Final) © 2018 Clinical Data Interchange Standards Consortium, Inc. All rights reserved Page 47 2018-11-20 4.4.9 Use of Dates as Result Variables Dates are generally used only as timing variables to describe the timing of an event, intervention, or collection activity, but there may be occasions when it may be preferable to model a date as a result ( --ORRES) in a Findings dataset. Note that using a date as a result to a Findings question is unusual and atypical, and should be approached with caution. This situation, however, may occasionally occur when a) a group of questions (each of which has a date response) is asked and analyzed together; or b) the Event(s) and Intervention(s) in quest ion are not medically significant (often the case when included in questionnaires). Consider the following cases: • Calculated due date • Date of last day on the job • Date of high school graduation One approac"}
{"chunk_id": "p0047_c001", "page": 47, "text": "ded in questionnaires). Consider the following cases: • Calculated due date • Date of last day on the job • Date of high school graduation One approach to modeling these data would be to place the text of the question in --TEST and the response to the question, a date represented in ISO 8601 format, in --ORRES and --STRESC, as long as these date results do not contain the dates of medically significant events or interventions. Again, use extreme caution when storing dates as the results of Findings. Remember, in most cases, these dates should be timing variables associated with a record in an Intervention or Events dataset. 4.4.10 Representing Time Points Time points can be represented using the time point variables, --TPT, --TPTNUM, --ELTM, and the time point anchors, --TPTREF (text description) and --RFTDTC (the date/time). Note that time-point data will usually have an associated --DTC value. The interrelationship of these variables is shown in Figure 4.4.10 below . Figure 4.4.10: R"}
{"chunk_id": "p0047_c002", "page": 47, "text": "me-point data will usually have an associated --DTC value. The interrelationship of these variables is shown in Figure 4.4.10 below . Figure 4.4.10: Relationships among Time Point Variables Values for these variables for Vital Signs measurements taken at 30, 60, and 90 minutes after dosing would look like the following. VSTPTNUM VSTPT VSELTM VSTPTREF VSRFTDTC VSDTC 1 30 MIN PT30M DOSE ADMINISTRATION 2006-08-01T08:00 2006-08-01T08:30 2 60 MIN PT1H DOSE ADMINISTRATION 2006-08-01T08:00 2006-08-01T09:01 3 90 MIN PT1H30M DOSE ADMINISTRATION 2006-08-01T08:00 2006-08-01T09:32 Values for these variables for Urine Collections taken pre-dose, and from 0-12 hours and 12-24 hours after dosing would look like the following. LBTPTNUM LBTPT LBELTM LBTPTREF LBRFTDTC LBDTC 1 15 MIN PRE-DOSE -PT15M DOSE ADMINISTRATION 2006-08-01T08:00 2006-08-01T07:45 2 0-12 HOURS PT12H DOSE ADMINISTRATION 2006-08-01T08:00 2006-08-01T20:35 3 12-24 HOURS PT24H DOSE ADMINISTRATION 2006-08-01T08:00 2006-08-02T08:40 Note th"}
{"chunk_id": "p0047_c003", "page": 47, "text": "12 HOURS PT12H DOSE ADMINISTRATION 2006-08-01T08:00 2006-08-01T20:35 3 12-24 HOURS PT24H DOSE ADMINISTRATION 2006-08-01T08:00 2006-08-02T08:40 Note that VSELTM is the planned elapsed time, not the actual elapsed time. The actual elapsed time could be derived in an analysis dataset, if desired, as VSDTC-VSRFTDTC."}
{"chunk_id": "p0048_c000", "page": 48, "text": "CDISC Study Data Tabulation Model Implementation Guide: Human Clinical Trials (Version 3.3 Final) © 2018 Clinical Data Interchange Standards Consortium, Inc. All rights reserved Page 48 2018-11-20 When time points are used, --TPTNUM is expected. Time points may or may not have an associated --TPTREF. Sometimes, --TPTNUM may be used as a key for multiple values collected for the same test within a visit; as such, there is no dependence upon an anchor such as --TPTREF, but there will be a dependency upon the VISITNUM. In such cases, VISITNUM will be required to confer uniqueness to values of --TPTNUM. If the protocol describes the scheduling of a dose using a reference intervention or assessment, then -- TPTREF should be populated, even if it does not contribute to uniqueness. The fact that time points are related to a reference time point, and what that reference time point is, are important for interpreting the data collected at the time point. Not all time points will require all thre"}
{"chunk_id": "p0048_c001", "page": 48, "text": " and what that reference time point is, are important for interpreting the data collected at the time point. Not all time points will require all three variables to provide uniqueness. In fact, in some cases a time point may be uniquely identified without the use of VISIT, or without the use of --TPTREF, or, without the use of either one. For instance: • A trial might have time points only within one visit, so that the contribution of VISITNUM to uniqueness is trivial. (VISITNUM would be populated, but would not contribute to uniqueness.) • A trial might have time points that do not relate to any visit, such as time points relative to a dose of drug self - administered by the subject at home. (Visit variables would not be included, but --TPTREF and other time point variables would be populated.) • A trial may have only one reference time point per visit, and all reference time points may be similar, so that only one value of --TPTREF (e.g., \"DOSE\") is needed. (--TPTREF would be populat"}
{"chunk_id": "p0048_c002", "page": 48, "text": "point per visit, and all reference time points may be similar, so that only one value of --TPTREF (e.g., \"DOSE\") is needed. (--TPTREF would be populated, but would not contribute to uniqueness.) • A trial may have time points not related to a reference time point. For instance, --TPTNUM values could be used to distinguish first, second, and third repeats of a measurement scheduled without any relationship to dosing. (--TPTREF and --ELTM would not be included.) In this case, where the protocol calls for repeated measurements but does not specify timing of the measurements, the --REPNUM variable could be used instead of time point variables. For trials with many time points, the requirement to provide uniqueness using only VISITNUM, --TPTREF, and -- TPTNUM may lead to a scheme where multiple natural keys are combined into the values of one of these variables. For instance, in a crossover trial with multiple doses on multiple days within each period, either of the following options could "}
{"chunk_id": "p0048_c003", "page": 48, "text": "of these variables. For instance, in a crossover trial with multiple doses on multiple days within each period, either of the following options could be used. VISITNUM might be used to designate period, --TPTREF might be used to designate the day and the dose, and --TPTNUM might be used to designate the timing relative to the reference time point. Alternatively, VISITNUM might be used to designate period and day within period, --TPTREF might be used to designate the dose within the day, and --TPTNUM might be used to designate the timing relative to the reference time point. Note that the value in LBELTM represents the end of the specimen collection interval."}
